ｻﾝﾌﾟﾙ:	GaAs_190-1100_600_1_05
ﾌｧｲﾙ名:	GaAs_190-1100_600_1_05.UDS
分析日時:	'13:33:10, 09/20/2024
ｵﾍﾟﾚｰﾀ:	OB
ｺﾒﾝﾄ:	'

光度計
ﾓﾃﾞﾙ:	U-3900形分光光度計
ｼﾘｱﾙ No.:	'3004-010
ROM Ver.:	2J25300 07

装置条件
測定ﾓｰﾄﾞ:	波長ｽｷｬﾝ
ﾃﾞｰﾀﾓｰﾄﾞ:	%T
開始波長:	1100.00 nm
終了波長:	190.00 nm
ｽｷｬﾝｽﾋﾟｰﾄﾞ:	600 nm/min
ｻﾝﾌﾟﾘﾝｸﾞ間隔:	0.50 nm
初期待ち時間:	0 s
繰り返し周期:	0.0 min
測定回数:	1
測定前ｵｰﾄｾﾞﾛ:	Off
ｽﾘｯﾄ:	1 nm
ﾎﾄﾏﾙ電圧:	自動制御
光源切換ﾓｰﾄﾞ:	自動切換
光源切換波長:	340.00 nm
ﾍﾞｰｽﾗｲﾝ設定:	ﾕｰｻﾞ 1
高分解能測定:	Off
D2ﾗﾝﾌﾟ:	On
WIﾗﾝﾌﾟ:	On
R/S反転:	Off
ｾﾙ長:	10.0 mm

ﾋﾟｰｸ検出
検出方法:	Rectangular
感度:	1
しきい値:	0.0100

ﾋﾟｰｸ
ﾋﾟｰｸ No.	開始 (nm)	ﾋﾟｰｸ (nm)	終了 (nm)	高さ (%T)	ﾊﾞﾚｰ (nm)	ﾊﾞﾚｰ (%T)
1	1100.00	1085.50	1083.00	-190.834	1083.00	64.363
2	1083.00	1082.50	1078.00	-66.361	1078.00	105.112
3	1078.00	1074.00	1069.50	-40.223	1069.50	65.956
4	1069.50	1067.00	1064.00	6.915	1064.00	74.279
5	1064.00	1062.50	1061.00	34.060	1061.00	66.105
6	1061.00	1058.00	1053.00	40.147	1053.00	58.018
7	1053.00	1049.00	1039.00	39.094	1039.00	48.801
8	1039.00	1035.00	1031.50	43.234	1031.50	46.764
9	1031.50	1025.50	1023.00	44.986	1023.00	46.051
10	1023.00	1016.50	1013.50	44.772	1013.50	45.947
11	1013.50	1011.50	1006.50	44.679	1006.50	45.621
12	1006.50	1002.00	999.50	45.180	999.50	45.394
13	999.50	997.00	992.50	44.957	992.50	45.730
14	992.50	987.50	984.50	44.456	984.50	45.009
15	984.50	982.50	979.50	44.355	979.50	45.050
16	979.50	977.50	975.50	44.406	975.50	44.708
17	975.50	973.00	971.00	43.936	971.00	44.548
18	971.00	969.00	966.00	44.095	966.00	44.729
19	966.00	953.50	950.50	43.549	950.50	44.341
20	950.50	948.00	945.50	43.716	945.50	44.072
21	945.50	944.00	939.50	43.447	939.50	44.294
22	939.50	934.50	929.50	42.990	929.50	43.545
23	929.50	927.00	925.00	42.732	925.00	42.953
24	925.00	922.50	920.50	42.536	920.50	43.266
25	920.50	914.00	911.00	41.156	911.00	41.875
26	911.00	882.50	880.00	-0.006	880.00	0.078
27	880.00	875.00	873.00	-0.066	873.00	0.072
28	873.00	871.00	868.00	-0.051	868.00	0.107
29	868.00	864.50	858.50	-0.008	858.50	0.088
30	858.50	856.00	851.50	-0.043	851.50	0.022
31	851.50	851.00	846.50	0.000	846.50	0.076
32	846.50	840.50	837.50	-0.047	837.50	0.039
33	837.50	835.00	833.00	-0.023	833.00	0.005
34	833.00	829.00	824.50	-0.052	824.50	0.004
35	824.50	821.00	818.00	-0.060	818.00	0.010
36	818.00	815.50	809.50	-0.074	809.50	0.001
37	809.50	808.00	805.50	-0.055	805.50	0.002
38	805.50	801.00	796.50	-0.046	796.50	-0.011
39	796.50	793.00	791.00	-0.036	791.00	0.013
40	791.00	788.00	786.50	-0.054	786.50	-0.004
41	786.50	783.00	776.50	-0.051	776.50	0.003
42	776.50	773.00	771.50	-0.023	771.50	-0.003
43	771.50	768.50	765.00	-0.033	765.00	0.017
44	765.00	762.00	755.50	-0.043	755.50	0.003
45	755.50	747.00	741.00	-0.036	741.00	0.067
46	741.00	734.50	728.00	-0.050	728.00	0.002
47	728.00	725.50	722.50	-0.044	722.50	0.006
48	722.50	718.50	714.50	-0.042	714.50	-0.020
49	714.50	713.00	710.50	-0.047	710.50	-0.015
50	710.50	708.00	704.50	-0.029	704.50	-0.012
51	704.50	702.50	696.50	-0.040	696.50	-0.006
52	696.50	694.50	692.00	-0.027	692.00	-0.001
53	692.00	682.00	670.00	-0.022	670.00	-0.003
54	670.00	667.50	665.00	-0.013	665.00	-0.002
55	665.00	661.50	610.50	-0.016	610.50	0.002
56	610.50	596.50	579.50	-0.038	579.50	-0.013
57	579.50	576.00	553.50	-0.028	553.50	-0.005
58	553.50	545.00	542.00	-0.016	542.00	0.000
59	542.00	530.50	503.50	-0.010	503.50	0.015
60	503.50	481.50	450.50	-0.006	450.50	0.007
61	450.50	444.50	417.00	-0.012	417.00	0.020
62	417.00	409.00	391.50	-0.002	391.50	0.017
63	391.50	389.50	381.00	0.007	381.00	0.028
64	381.00	377.50	362.50	-0.035	362.50	0.021
65	362.50	359.00	341.50	0.008	341.50	0.035
66	341.50	338.00	330.00	-0.008	330.00	0.003
67	330.00	313.50	190.00	-0.011	190.00	0.387

ﾃﾞｰﾀﾘｽﾄ
nm	%T
1100.00	1210776.855
1099.50	742858.652
1099.00	314610.883
1098.50	-2646.888
1098.00	-161497.683
1097.50	-154539.911
1097.00	-30319.691
1096.50	90676.055
1096.00	-18.856
1095.50	28.161
1095.00	57.627
1094.50	72.784
1094.00	75.347
1093.50	71.625
1093.00	56.908
1092.50	44.588
1092.00	60.564
1091.50	30.412
1091.00	22.258
1090.50	3.047
1090.00	11.206
1089.50	-33.672
1089.00	101.454
1088.50	124.286
1088.00	78.374
1087.50	14.763
1087.00	-77.556
1086.50	-127.816
1086.00	-171.982
1085.50	-190.834
1085.00	-154.674
1084.50	-125.290
1084.00	-12.689
1083.50	50.419
1083.00	64.363
1082.50	-66.361
1082.00	-9.943
1081.50	-14.645
1081.00	-30.795
1080.50	-26.653
1080.00	-24.689
1079.50	23.677
1079.00	69.686
1078.50	102.776
1078.00	105.112
1077.50	55.099
1077.00	66.181
1076.50	65.114
1076.00	25.217
1075.50	-8.123
1075.00	-23.610
1074.50	-26.363
1074.00	-40.223
1073.50	-35.426
1073.00	-24.499
1072.50	-3.621
1072.00	24.061
1071.50	51.495
1071.00	60.099
1070.50	27.997
1070.00	42.814
1069.50	65.956
1069.00	56.234
1068.50	49.527
1068.00	36.495
1067.50	21.238
1067.00	6.915
1066.50	19.542
1066.00	37.742
1065.50	49.158
1065.00	60.217
1064.50	71.379
1064.00	74.279
1063.50	39.772
1063.00	38.048
1062.50	34.060
1062.00	40.926
1061.50	56.686
1061.00	66.105
1060.50	65.975
1060.00	53.144
1059.50	52.816
1059.00	52.187
1058.50	45.114
1058.00	40.147
1057.50	41.040
1057.00	48.614
1056.50	50.601
1056.00	51.181
1055.50	48.857
1055.00	51.411
1054.50	52.263
1054.00	51.699
1053.50	54.944
1053.00	58.018
1052.50	57.484
1052.00	57.830
1051.50	57.650
1051.00	55.815
1050.50	50.527
1050.00	45.525
1049.50	41.444
1049.00	39.094
1048.50	39.174
1048.00	42.979
1047.50	41.184
1047.00	42.852
1046.50	45.686
1046.00	47.691
1045.50	46.812
1045.00	45.321
1044.50	44.982
1044.00	45.032
1043.50	46.230
1043.00	46.575
1042.50	46.142
1042.00	45.497
1041.50	45.781
1041.00	47.223
1040.50	44.946
1040.00	46.243
1039.50	47.246
1039.00	48.801
1038.50	48.636
1038.00	47.100
1037.50	46.691
1037.00	46.260
1036.50	45.417
1036.00	44.809
1035.50	44.337
1035.00	43.234
1034.50	44.280
1034.00	44.502
1033.50	44.485
1033.00	45.208
1032.50	45.594
1032.00	46.129
1031.50	46.764
1031.00	46.225
1030.50	46.115
1030.00	45.854
1029.50	45.801
1029.00	45.457
1028.50	45.722
1028.00	45.726
1027.50	45.511
1027.00	45.650
1026.50	45.496
1026.00	45.232
1025.50	44.986
1025.00	45.527
1024.50	45.791
1024.00	45.798
1023.50	45.809
1023.00	46.051
1022.50	45.995
1022.00	45.377
1021.50	45.437
1021.00	45.401
1020.50	45.286
1020.00	45.311
1019.50	45.329
1019.00	45.414
1018.50	45.128
1018.00	45.490
1017.50	45.268
1017.00	44.952
1016.50	44.772
1016.00	44.971
1015.50	44.988
1015.00	45.175
1014.50	45.501
1014.00	45.609
1013.50	45.947
1013.00	45.765
1012.50	45.409
1012.00	45.080
1011.50	44.679
1011.00	44.867
1010.50	44.907
1010.00	44.995
1009.50	45.021
1009.00	45.034
1008.50	45.293
1008.00	45.564
1007.50	45.481
1007.00	45.326
1006.50	45.621
1006.00	45.460
1005.50	45.479
1005.00	45.337
1004.50	45.192
1004.00	45.214
1003.50	45.318
1003.00	45.504
1002.50	45.198
1002.00	45.180
1001.50	45.182
1001.00	45.281
1000.50	45.322
1000.00	45.213
999.50	45.394
999.00	45.221
998.50	45.346
998.00	45.264
997.50	45.181
997.00	44.957
996.50	45.007
996.00	45.222
995.50	45.206
995.00	45.394
994.50	45.368
994.00	45.428
993.50	45.575
993.00	45.723
992.50	45.730
992.00	45.709
991.50	45.668
991.00	45.366
990.50	45.176
990.00	44.982
989.50	44.682
989.00	44.578
988.50	44.583
988.00	44.503
987.50	44.456
987.00	44.513
986.50	44.626
986.00	44.619
985.50	44.683
985.00	44.965
984.50	45.009
984.00	44.676
983.50	44.436
983.00	44.406
982.50	44.355
982.00	44.474
981.50	44.698
981.00	44.681
980.50	44.807
980.00	44.948
979.50	45.050
979.00	44.623
978.50	44.489
978.00	44.475
977.50	44.406
977.00	44.486
976.50	44.548
976.00	44.553
975.50	44.708
975.00	44.686
974.50	44.578
974.00	44.349
973.50	43.989
973.00	43.936
972.50	44.107
972.00	44.253
971.50	44.459
971.00	44.548
970.50	44.240
970.00	44.412
969.50	44.330
969.00	44.095
968.50	44.130
968.00	44.220
967.50	44.396
967.00	44.678
966.50	44.474
966.00	44.729
965.50	44.528
965.00	44.662
964.50	44.704
964.00	44.625
963.50	44.264
963.00	44.329
962.50	44.169
962.00	44.021
961.50	43.861
961.00	43.855
960.50	44.090
960.00	44.231
959.50	43.948
959.00	44.069
958.50	43.833
958.00	43.928
957.50	43.894
957.00	43.685
956.50	43.639
956.00	43.911
955.50	43.935
955.00	43.869
954.50	43.580
954.00	43.586
953.50	43.549
953.00	43.620
952.50	43.736
952.00	43.939
951.50	43.999
951.00	44.242
950.50	44.341
950.00	44.145
949.50	43.880
949.00	43.815
948.50	43.771
948.00	43.716
947.50	43.768
947.00	44.037
946.50	44.051
946.00	44.025
945.50	44.072
945.00	43.960
944.50	43.636
944.00	43.447
943.50	43.481
943.00	43.550
942.50	43.576
942.00	43.829
941.50	44.010
941.00	44.191
940.50	44.185
940.00	44.229
939.50	44.294
939.00	44.027
938.50	43.898
938.00	43.696
937.50	43.610
937.00	43.646
936.50	43.799
936.00	43.536
935.50	43.309
935.00	43.109
934.50	42.990
934.00	43.102
933.50	43.007
933.00	43.004
932.50	43.251
932.00	43.355
931.50	43.355
931.00	43.210
930.50	43.337
930.00	43.429
929.50	43.545
929.00	43.449
928.50	43.317
928.00	42.872
927.50	42.789
927.00	42.732
926.50	42.756
926.00	42.939
925.50	42.872
925.00	42.953
924.50	42.931
924.00	42.788
923.50	42.801
923.00	42.748
922.50	42.536
922.00	42.777
921.50	42.894
921.00	42.968
920.50	43.266
920.00	43.206
919.50	42.985
919.00	42.770
918.50	42.429
918.00	42.271
917.50	41.941
917.00	41.778
916.50	41.840
916.00	42.000
915.50	41.823
915.00	41.581
914.50	41.256
914.00	41.156
913.50	41.214
913.00	41.267
912.50	41.435
912.00	41.397
911.50	41.630
911.00	41.875
910.50	41.567
910.00	41.212
909.50	40.951
909.00	40.577
908.50	40.378
908.00	40.078
907.50	39.959
907.00	39.923
906.50	39.677
906.00	39.440
905.50	39.124
905.00	38.464
904.50	38.093
904.00	37.677
903.50	37.019
903.00	36.609
902.50	36.233
902.00	35.645
901.50	34.933
901.00	34.279
900.50	33.472
900.00	32.670
899.50	31.652
899.00	30.506
898.50	29.150
898.00	27.508
897.50	25.886
897.00	24.364
896.50	22.531
896.00	20.709
895.50	18.579
895.00	16.291
894.50	13.819
894.00	11.408
893.50	8.977
893.00	7.080
892.50	5.643
892.00	4.443
891.50	3.492
891.00	2.663
890.50	1.846
890.00	1.293
889.50	0.836
889.00	0.589
888.50	0.390
888.00	0.266
887.50	0.219
887.00	0.145
886.50	0.012
886.00	0.003
885.50	0.053
885.00	0.066
884.50	0.089
884.00	0.064
883.50	0.052
883.00	0.039
882.50	-0.006
882.00	-0.003
881.50	0.031
881.00	0.050
880.50	0.051
880.00	0.078
879.50	0.046
879.00	0.040
878.50	0.049
878.00	0.062
877.50	0.058
877.00	0.023
876.50	-0.015
876.00	-0.028
875.50	-0.064
875.00	-0.066
874.50	-0.042
874.00	0.001
873.50	0.046
873.00	0.072
872.50	0.056
872.00	0.022
871.50	-0.027
871.00	-0.051
870.50	-0.048
870.00	-0.022
869.50	0.015
869.00	0.071
868.50	0.081
868.00	0.107
867.50	0.089
867.00	0.075
866.50	0.047
866.00	0.036
865.50	0.021
865.00	0.000
864.50	-0.008
864.00	0.012
863.50	0.010
863.00	0.042
862.50	0.047
862.00	0.054
861.50	0.024
861.00	0.014
860.50	0.014
860.00	0.030
859.50	0.040
859.00	0.063
858.50	0.088
858.00	0.049
857.50	0.034
857.00	0.019
856.50	-0.025
856.00	-0.043
855.50	-0.037
855.00	-0.039
854.50	-0.028
854.00	-0.013
853.50	0.010
853.00	0.012
852.50	0.012
852.00	0.004
851.50	0.022
851.00	0.000
850.50	0.004
850.00	0.003
849.50	0.004
849.00	0.001
848.50	0.058
848.00	0.047
847.50	0.053
847.00	0.073
846.50	0.076
846.00	0.052
845.50	0.032
845.00	0.011
844.50	0.004
844.00	-0.002
843.50	-0.011
843.00	-0.027
842.50	-0.042
842.00	-0.046
841.50	-0.027
841.00	-0.045
840.50	-0.047
840.00	-0.032
839.50	-0.017
839.00	-0.010
838.50	-0.004
838.00	0.020
837.50	0.039
837.00	0.035
836.50	0.021
836.00	-0.011
835.50	-0.023
835.00	-0.023
834.50	-0.004
834.00	-0.003
833.50	0.001
833.00	0.005
832.50	-0.002
832.00	-0.012
831.50	-0.024
831.00	-0.034
830.50	-0.035
830.00	-0.036
829.50	-0.032
829.00	-0.052
828.50	-0.045
828.00	-0.043
827.50	-0.026
827.00	-0.037
826.50	-0.034
826.00	-0.002
825.50	-0.011
825.00	-0.004
824.50	0.004
824.00	-0.007
823.50	-0.004
823.00	-0.003
822.50	-0.005
822.00	-0.033
821.50	-0.046
821.00	-0.060
820.50	-0.040
820.00	-0.030
819.50	-0.024
819.00	0.004
818.50	0.001
818.00	0.010
817.50	0.008
817.00	-0.019
816.50	-0.043
816.00	-0.066
815.50	-0.074
815.00	-0.073
814.50	-0.065
814.00	-0.068
813.50	-0.072
813.00	-0.062
812.50	-0.060
812.00	-0.072
811.50	-0.065
811.00	-0.055
810.50	-0.034
810.00	-0.011
809.50	0.001
809.00	-0.019
808.50	-0.042
808.00	-0.055
807.50	-0.051
807.00	-0.031
806.50	-0.023
806.00	-0.007
805.50	0.002
805.00	-0.003
804.50	0.000
804.00	-0.006
803.50	-0.023
803.00	-0.020
802.50	-0.005
802.00	-0.022
801.50	-0.040
801.00	-0.046
800.50	-0.046
800.00	-0.039
799.50	-0.029
799.00	-0.017
798.50	-0.023
798.00	-0.023
797.50	-0.013
797.00	-0.015
796.50	-0.011
796.00	-0.016
795.50	-0.019
795.00	-0.027
794.50	-0.033
794.00	-0.034
793.50	-0.031
793.00	-0.036
792.50	-0.019
792.00	0.002
791.50	0.008
791.00	0.013
790.50	0.011
790.00	-0.014
789.50	-0.024
789.00	-0.041
788.50	-0.052
788.00	-0.054
787.50	-0.036
787.00	-0.019
786.50	-0.004
786.00	-0.012
785.50	-0.025
785.00	-0.033
784.50	-0.045
784.00	-0.048
783.50	-0.044
783.00	-0.051
782.50	-0.046
782.00	-0.041
781.50	-0.040
781.00	-0.028
780.50	-0.026
780.00	-0.018
779.50	-0.012
779.00	-0.015
778.50	-0.026
778.00	-0.024
777.50	-0.017
777.00	-0.011
776.50	0.003
776.00	-0.004
775.50	-0.005
775.00	-0.007
774.50	-0.016
774.00	-0.013
773.50	-0.020
773.00	-0.023
772.50	-0.012
772.00	-0.004
771.50	-0.003
771.00	-0.010
770.50	-0.013
770.00	-0.020
769.50	-0.021
769.00	-0.029
768.50	-0.033
768.00	-0.033
767.50	-0.031
767.00	-0.014
766.50	0.001
766.00	0.003
765.50	0.012
765.00	0.017
764.50	0.009
764.00	-0.007
763.50	-0.019
763.00	-0.029
762.50	-0.036
762.00	-0.043
761.50	-0.033
761.00	-0.023
760.50	-0.012
760.00	0.002
759.50	-0.002
759.00	-0.019
758.50	-0.026
758.00	-0.023
757.50	-0.010
757.00	-0.006
756.50	-0.002
756.00	-0.004
755.50	0.003
755.00	-0.004
754.50	-0.013
754.00	-0.029
753.50	-0.026
753.00	-0.012
752.50	-0.005
752.00	-0.011
751.50	-0.019
751.00	-0.030
750.50	-0.027
750.00	-0.019
749.50	-0.011
749.00	-0.017
748.50	-0.013
748.00	-0.017
747.50	-0.031
747.00	-0.036
746.50	-0.032
746.00	-0.023
745.50	-0.015
745.00	-0.006
744.50	0.000
744.00	0.002
743.50	0.010
743.00	0.025
742.50	0.030
742.00	0.042
741.50	0.058
741.00	0.067
740.50	0.056
740.00	0.046
739.50	0.031
739.00	0.023
738.50	0.013
738.00	0.016
737.50	0.010
737.00	-0.001
736.50	-0.003
736.00	-0.013
735.50	-0.019
735.00	-0.038
734.50	-0.050
734.00	-0.048
733.50	-0.037
733.00	-0.024
732.50	-0.034
732.00	-0.027
731.50	-0.028
731.00	-0.013
730.50	-0.012
730.00	-0.019
729.50	-0.012
729.00	-0.016
728.50	0.001
728.00	0.002
727.50	-0.008
727.00	-0.030
726.50	-0.033
726.00	-0.028
725.50	-0.044
725.00	-0.038
724.50	-0.036
724.00	-0.023
723.50	-0.005
723.00	-0.003
722.50	0.006
722.00	0.001
721.50	-0.004
721.00	-0.004
720.50	-0.013
720.00	-0.032
719.50	-0.029
719.00	-0.033
718.50	-0.042
718.00	-0.040
717.50	-0.041
717.00	-0.039
716.50	-0.025
716.00	-0.025
715.50	-0.023
715.00	-0.021
714.50	-0.020
714.00	-0.021
713.50	-0.026
713.00	-0.047
712.50	-0.044
712.00	-0.034
711.50	-0.023
711.00	-0.017
710.50	-0.015
710.00	-0.016
709.50	-0.023
709.00	-0.021
708.50	-0.025
708.00	-0.029
707.50	-0.027
707.00	-0.025
706.50	-0.017
706.00	-0.021
705.50	-0.020
705.00	-0.018
704.50	-0.012
704.00	-0.015
703.50	-0.018
703.00	-0.028
702.50	-0.040
702.00	-0.037
701.50	-0.035
701.00	-0.030
700.50	-0.020
700.00	-0.011
699.50	-0.007
699.00	-0.009
698.50	-0.009
698.00	-0.010
697.50	-0.010
697.00	-0.007
696.50	-0.006
696.00	-0.016
695.50	-0.019
695.00	-0.026
694.50	-0.027
694.00	-0.024
693.50	-0.015
693.00	-0.011
692.50	-0.004
692.00	-0.001
691.50	-0.002
691.00	-0.005
690.50	-0.009
690.00	-0.004
689.50	-0.005
689.00	-0.005
688.50	0.000
688.00	-0.008
687.50	-0.013
687.00	-0.015
686.50	-0.011
686.00	-0.012
685.50	-0.012
685.00	-0.010
684.50	-0.013
684.00	-0.016
683.50	-0.020
683.00	-0.019
682.50	-0.021
682.00	-0.022
681.50	-0.017
681.00	-0.017
680.50	-0.017
680.00	-0.020
679.50	-0.019
679.00	-0.017
678.50	-0.013
678.00	-0.011
677.50	-0.014
677.00	-0.014
676.50	-0.016
676.00	-0.015
675.50	-0.009
675.00	-0.007
674.50	-0.009
674.00	-0.007
673.50	-0.008
673.00	-0.012
672.50	-0.013
672.00	-0.013
671.50	-0.010
671.00	-0.006
670.50	-0.004
670.00	-0.003
669.50	-0.005
669.00	-0.009
668.50	-0.009
668.00	-0.011
667.50	-0.013
667.00	-0.009
666.50	-0.008
666.00	-0.008
665.50	-0.007
665.00	-0.002
664.50	-0.003
664.00	-0.004
663.50	-0.006
663.00	-0.008
662.50	-0.009
662.00	-0.013
661.50	-0.016
661.00	-0.014
660.50	-0.011
660.00	-0.007
659.50	-0.007
659.00	-0.008
658.50	-0.011
658.00	-0.010
657.50	-0.008
657.00	-0.010
656.50	-0.010
656.00	-0.007
655.50	-0.005
655.00	-0.003
654.50	-0.007
654.00	-0.005
653.50	-0.006
653.00	-0.005
652.50	-0.005
652.00	-0.005
651.50	-0.007
651.00	-0.007
650.50	-0.005
650.00	-0.006
649.50	-0.006
649.00	-0.006
648.50	-0.006
648.00	-0.006
647.50	-0.009
647.00	-0.006
646.50	-0.005
646.00	-0.005
645.50	-0.006
645.00	-0.006
644.50	-0.006
644.00	-0.006
643.50	-0.007
643.00	-0.006
642.50	-0.006
642.00	-0.005
641.50	-0.004
641.00	-0.004
640.50	-0.007
640.00	-0.008
639.50	-0.007
639.00	-0.008
638.50	-0.008
638.00	-0.008
637.50	-0.008
637.00	-0.008
636.50	-0.008
636.00	-0.007
635.50	-0.006
635.00	-0.006
634.50	-0.005
634.00	-0.004
633.50	-0.004
633.00	-0.005
632.50	-0.005
632.00	-0.005
631.50	-0.004
631.00	-0.002
630.50	-0.004
630.00	-0.004
629.50	-0.003
629.00	-0.003
628.50	-0.004
628.00	-0.004
627.50	-0.006
627.00	-0.006
626.50	-0.006
626.00	-0.007
625.50	-0.008
625.00	-0.009
624.50	-0.008
624.00	-0.007
623.50	-0.009
623.00	-0.009
622.50	-0.008
622.00	-0.007
621.50	-0.006
621.00	-0.002
620.50	-0.002
620.00	-0.004
619.50	-0.004
619.00	-0.006
618.50	-0.006
618.00	-0.008
617.50	-0.005
617.00	-0.005
616.50	-0.004
616.00	-0.002
615.50	-0.002
615.00	-0.004
614.50	-0.007
614.00	-0.006
613.50	-0.005
613.00	-0.005
612.50	-0.002
612.00	-0.001
611.50	0.002
611.00	0.001
610.50	0.002
610.00	0.000
609.50	0.000
609.00	0.000
608.50	-0.002
608.00	-0.003
607.50	-0.003
607.00	-0.003
606.50	-0.004
606.00	-0.003
605.50	-0.002
605.00	-0.001
604.50	0.000
604.00	0.000
603.50	-0.001
603.00	-0.002
602.50	0.000
602.00	0.001
601.50	0.001
601.00	-0.003
600.50	-0.006
600.00	-0.009
599.50	-0.015
599.00	-0.020
598.50	-0.027
598.00	-0.036
597.50	-0.037
597.00	-0.037
596.50	-0.038
596.00	-0.036
595.50	-0.036
595.00	-0.031
594.50	-0.026
594.00	-0.026
593.50	-0.027
593.00	-0.030
592.50	-0.035
592.00	-0.032
591.50	-0.029
591.00	-0.031
590.50	-0.027
590.00	-0.026
589.50	-0.026
589.00	-0.023
588.50	-0.028
588.00	-0.029
587.50	-0.031
587.00	-0.032
586.50	-0.030
586.00	-0.028
585.50	-0.027
585.00	-0.025
584.50	-0.025
584.00	-0.024
583.50	-0.017
583.00	-0.016
582.50	-0.016
582.00	-0.018
581.50	-0.020
581.00	-0.017
580.50	-0.015
580.00	-0.013
579.50	-0.013
579.00	-0.014
578.50	-0.014
578.00	-0.016
577.50	-0.020
577.00	-0.025
576.50	-0.027
576.00	-0.028
575.50	-0.026
575.00	-0.023
574.50	-0.019
574.00	-0.016
573.50	-0.014
573.00	-0.013
572.50	-0.013
572.00	-0.015
571.50	-0.016
571.00	-0.017
570.50	-0.016
570.00	-0.015
569.50	-0.012
569.00	-0.011
568.50	-0.011
568.00	-0.011
567.50	-0.011
567.00	-0.013
566.50	-0.015
566.00	-0.016
565.50	-0.016
565.00	-0.017
564.50	-0.019
564.00	-0.017
563.50	-0.015
563.00	-0.014
562.50	-0.012
562.00	-0.012
561.50	-0.012
561.00	-0.015
560.50	-0.015
560.00	-0.015
559.50	-0.015
559.00	-0.014
558.50	-0.012
558.00	-0.011
557.50	-0.009
557.00	-0.010
556.50	-0.011
556.00	-0.011
555.50	-0.010
555.00	-0.007
554.50	-0.006
554.00	-0.007
553.50	-0.005
553.00	-0.006
552.50	-0.009
552.00	-0.011
551.50	-0.010
551.00	-0.012
550.50	-0.009
550.00	-0.009
549.50	-0.009
549.00	-0.008
548.50	-0.009
548.00	-0.008
547.50	-0.009
547.00	-0.010
546.50	-0.010
546.00	-0.009
545.50	-0.012
545.00	-0.016
544.50	-0.013
544.00	-0.012
543.50	-0.009
543.00	-0.004
542.50	-0.001
542.00	0.000
541.50	-0.003
541.00	-0.004
540.50	-0.006
540.00	-0.010
539.50	-0.009
539.00	-0.007
538.50	-0.007
538.00	-0.007
537.50	-0.006
537.00	-0.004
536.50	-0.004
536.00	-0.003
535.50	-0.005
535.00	-0.005
534.50	-0.008
534.00	-0.010
533.50	-0.008
533.00	-0.010
532.50	-0.009
532.00	-0.009
531.50	-0.009
531.00	-0.009
530.50	-0.010
530.00	-0.010
529.50	-0.007
529.00	-0.007
528.50	-0.006
528.00	-0.005
527.50	-0.005
527.00	-0.006
526.50	-0.007
526.00	-0.008
525.50	-0.007
525.00	-0.009
524.50	-0.009
524.00	-0.008
523.50	-0.010
523.00	-0.010
522.50	-0.006
522.00	-0.007
521.50	-0.008
521.00	-0.009
520.50	-0.008
520.00	-0.007
519.50	-0.007
519.00	-0.007
518.50	-0.006
518.00	-0.006
517.50	-0.004
517.00	-0.001
516.50	-0.001
516.00	-0.001
515.50	0.001
515.00	0.002
514.50	0.000
514.00	-0.001
513.50	-0.001
513.00	-0.001
512.50	0.002
512.00	0.003
511.50	0.005
511.00	0.006
510.50	0.009
510.00	0.009
509.50	0.008
509.00	0.008
508.50	0.010
508.00	0.014
507.50	0.012
507.00	0.011
506.50	0.010
506.00	0.008
505.50	0.010
505.00	0.009
504.50	0.013
504.00	0.014
503.50	0.015
503.00	0.014
502.50	0.011
502.00	0.008
501.50	0.006
501.00	0.008
500.50	0.006
500.00	0.008
499.50	0.009
499.00	0.009
498.50	0.009
498.00	0.007
497.50	0.009
497.00	0.011
496.50	0.009
496.00	0.007
495.50	0.005
495.00	0.003
494.50	0.003
494.00	0.006
493.50	0.006
493.00	0.006
492.50	0.008
492.00	0.008
491.50	0.008
491.00	0.005
490.50	0.003
490.00	0.005
489.50	0.006
489.00	0.007
488.50	0.008
488.00	0.009
487.50	0.008
487.00	0.007
486.50	0.007
486.00	0.005
485.50	0.004
485.00	0.003
484.50	0.001
484.00	0.001
483.50	-0.001
483.00	-0.002
482.50	-0.004
482.00	-0.004
481.50	-0.006
481.00	-0.005
480.50	-0.006
480.00	-0.004
479.50	-0.001
479.00	-0.001
478.50	0.000
478.00	-0.001
477.50	-0.003
477.00	-0.002
476.50	-0.002
476.00	-0.001
475.50	-0.001
475.00	0.000
474.50	-0.001
474.00	-0.001
473.50	-0.003
473.00	-0.003
472.50	-0.002
472.00	-0.002
471.50	-0.002
471.00	-0.002
470.50	-0.001
470.00	-0.001
469.50	-0.002
469.00	-0.002
468.50	-0.001
468.00	-0.001
467.50	0.000
467.00	-0.001
466.50	-0.001
466.00	-0.002
465.50	-0.002
465.00	-0.002
464.50	-0.001
464.00	0.000
463.50	0.001
463.00	0.000
462.50	0.001
462.00	0.000
461.50	-0.002
461.00	-0.003
460.50	0.000
460.00	0.002
459.50	0.005
459.00	0.005
458.50	0.004
458.00	0.001
457.50	0.000
457.00	0.000
456.50	0.000
456.00	-0.001
455.50	0.000
455.00	0.000
454.50	0.000
454.00	-0.002
453.50	-0.002
453.00	-0.001
452.50	0.001
452.00	0.003
451.50	0.005
451.00	0.006
450.50	0.007
450.00	0.004
449.50	0.000
449.00	-0.002
448.50	-0.004
448.00	-0.007
447.50	-0.007
447.00	-0.008
446.50	-0.008
446.00	-0.009
445.50	-0.009
445.00	-0.009
444.50	-0.012
444.00	-0.012
443.50	-0.009
443.00	-0.008
442.50	-0.007
442.00	-0.005
441.50	-0.003
441.00	-0.002
440.50	-0.002
440.00	-0.001
439.50	0.001
439.00	0.000
438.50	0.000
438.00	0.000
437.50	0.000
437.00	0.001
436.50	0.003
436.00	0.003
435.50	0.003
435.00	0.001
434.50	-0.001
434.00	-0.001
433.50	-0.002
433.00	-0.003
432.50	-0.001
432.00	-0.002
431.50	-0.004
431.00	-0.004
430.50	-0.003
430.00	-0.003
429.50	0.000
429.00	0.003
428.50	0.004
428.00	0.005
427.50	0.004
427.00	0.004
426.50	0.004
426.00	0.001
425.50	0.004
425.00	0.005
424.50	0.006
424.00	0.008
423.50	0.008
423.00	0.005
422.50	0.005
422.00	0.005
421.50	0.006
421.00	0.005
420.50	0.004
420.00	0.005
419.50	0.006
419.00	0.007
418.50	0.010
418.00	0.015
417.50	0.019
417.00	0.020
416.50	0.019
416.00	0.014
415.50	0.010
415.00	0.008
414.50	0.011
414.00	0.014
413.50	0.016
413.00	0.016
412.50	0.016
412.00	0.012
411.50	0.007
411.00	0.005
410.50	0.004
410.00	0.001
409.50	0.000
409.00	-0.002
408.50	0.001
408.00	0.003
407.50	0.003
407.00	0.005
406.50	0.006
406.00	0.006
405.50	0.004
405.00	0.002
404.50	0.004
404.00	0.004
403.50	0.007
403.00	0.008
402.50	0.011
402.00	0.008
401.50	0.007
401.00	0.007
400.50	0.009
400.00	0.011
399.50	0.014
399.00	0.015
398.50	0.014
398.00	0.014
397.50	0.015
397.00	0.013
396.50	0.013
396.00	0.013
395.50	0.017
395.00	0.017
394.50	0.016
394.00	0.012
393.50	0.012
393.00	0.013
392.50	0.016
392.00	0.017
391.50	0.017
391.00	0.014
390.50	0.010
390.00	0.007
389.50	0.007
389.00	0.007
388.50	0.012
388.00	0.013
387.50	0.013
387.00	0.013
386.50	0.012
386.00	0.014
385.50	0.018
385.00	0.022
384.50	0.024
384.00	0.023
383.50	0.022
383.00	0.019
382.50	0.019
382.00	0.020
381.50	0.027
381.00	0.028
380.50	0.027
380.00	0.020
379.50	0.003
379.00	-0.016
378.50	-0.027
378.00	-0.033
377.50	-0.035
377.00	-0.032
376.50	-0.030
376.00	-0.027
375.50	-0.026
375.00	-0.026
374.50	-0.025
374.00	-0.026
373.50	-0.023
373.00	-0.016
372.50	-0.011
372.00	-0.013
371.50	-0.013
371.00	-0.011
370.50	-0.009
370.00	-0.007
369.50	-0.009
369.00	-0.006
368.50	-0.003
368.00	0.001
367.50	0.005
367.00	0.005
366.50	0.005
366.00	0.007
365.50	0.012
365.00	0.013
364.50	0.014
364.00	0.016
363.50	0.019
363.00	0.021
362.50	0.021
362.00	0.021
361.50	0.018
361.00	0.017
360.50	0.014
360.00	0.012
359.50	0.010
359.00	0.008
358.50	0.010
358.00	0.009
357.50	0.011
357.00	0.012
356.50	0.013
356.00	0.013
355.50	0.011
355.00	0.011
354.50	0.012
354.00	0.012
353.50	0.009
353.00	0.010
352.50	0.012
352.00	0.017
351.50	0.025
351.00	0.024
350.50	0.022
350.00	0.018
349.50	0.018
349.00	0.018
348.50	0.020
348.00	0.019
347.50	0.019
347.00	0.019
346.50	0.019
346.00	0.021
345.50	0.023
345.00	0.022
344.50	0.025
344.00	0.026
343.50	0.028
343.00	0.024
342.50	0.026
342.00	0.029
341.50	0.035
341.00	0.034
340.50	0.030
340.00	0.021
339.50	0.009
339.00	-0.001
338.50	-0.005
338.00	-0.008
337.50	-0.007
337.00	-0.005
336.50	-0.004
336.00	-0.005
335.50	-0.004
335.00	-0.003
334.50	-0.003
334.00	-0.002
333.50	-0.002
333.00	-0.003
332.50	-0.004
332.00	-0.005
331.50	-0.005
331.00	-0.002
330.50	0.000
330.00	0.003
329.50	0.002
329.00	0.003
328.50	0.000
328.00	-0.002
327.50	-0.004
327.00	-0.004
326.50	-0.004
326.00	-0.004
325.50	-0.004
325.00	-0.004
324.50	-0.006
324.00	-0.005
323.50	-0.005
323.00	-0.005
322.50	-0.005
322.00	-0.006
321.50	-0.007
321.00	-0.009
320.50	-0.009
320.00	-0.009
319.50	-0.009
319.00	-0.009
318.50	-0.010
318.00	-0.010
317.50	-0.010
317.00	-0.009
316.50	-0.008
316.00	-0.005
315.50	-0.006
315.00	-0.009
314.50	-0.011
314.00	-0.011
313.50	-0.011
313.00	-0.011
312.50	-0.009
312.00	-0.006
311.50	-0.007
311.00	-0.008
310.50	-0.009
310.00	-0.009
309.50	-0.009
309.00	-0.007
308.50	-0.006
308.00	-0.008
307.50	-0.009
307.00	-0.008
306.50	-0.008
306.00	-0.008
305.50	-0.007
305.00	-0.007
304.50	-0.008
304.00	-0.010
303.50	-0.011
303.00	-0.009
302.50	-0.008
302.00	-0.006
301.50	-0.003
301.00	-0.001
300.50	-0.003
300.00	-0.004
299.50	-0.004
299.00	-0.003
298.50	-0.003
298.00	-0.005
297.50	-0.005
297.00	-0.007
296.50	-0.008
296.00	-0.007
295.50	-0.007
295.00	-0.009
294.50	-0.009
294.00	-0.008
293.50	-0.008
293.00	-0.010
292.50	-0.009
292.00	-0.008
291.50	-0.008
291.00	-0.009
290.50	-0.007
290.00	-0.007
289.50	-0.008
289.00	-0.008
288.50	-0.008
288.00	-0.009
287.50	-0.009
287.00	-0.010
286.50	-0.008
286.00	-0.007
285.50	-0.006
285.00	-0.004
284.50	-0.004
284.00	-0.006
283.50	-0.005
283.00	-0.005
282.50	-0.005
282.00	-0.005
281.50	-0.005
281.00	-0.005
280.50	-0.004
280.00	-0.005
279.50	-0.005
279.00	-0.004
278.50	-0.004
278.00	-0.005
277.50	-0.005
277.00	-0.004
276.50	-0.003
276.00	-0.002
275.50	-0.003
275.00	-0.001
274.50	-0.001
274.00	-0.002
273.50	-0.002
273.00	-0.002
272.50	-0.004
272.00	-0.003
271.50	-0.003
271.00	-0.004
270.50	-0.005
270.00	-0.002
269.50	-0.001
269.00	-0.001
268.50	-0.001
268.00	0.001
267.50	0.000
267.00	-0.001
266.50	-0.003
266.00	-0.001
265.50	0.000
265.00	0.000
264.50	0.000
264.00	-0.002
263.50	-0.003
263.00	-0.003
262.50	-0.003
262.00	-0.004
261.50	-0.002
261.00	-0.001
260.50	0.001
260.00	0.000
259.50	-0.001
259.00	-0.001
258.50	-0.002
258.00	0.000
257.50	-0.001
257.00	-0.002
256.50	-0.001
256.00	-0.001
255.50	-0.002
255.00	-0.002
254.50	-0.003
254.00	-0.003
253.50	-0.003
253.00	-0.002
252.50	-0.002
252.00	-0.003
251.50	-0.003
251.00	-0.002
250.50	-0.002
250.00	-0.004
249.50	-0.004
249.00	-0.004
248.50	-0.006
248.00	-0.005
247.50	-0.005
247.00	-0.004
246.50	-0.004
246.00	-0.003
245.50	-0.004
245.00	-0.005
244.50	-0.006
244.00	-0.005
243.50	-0.005
243.00	-0.006
242.50	-0.006
242.00	-0.005
241.50	-0.005
241.00	-0.005
240.50	-0.006
240.00	-0.005
239.50	-0.003
239.00	-0.003
238.50	-0.004
238.00	-0.004
237.50	-0.005
237.00	-0.004
236.50	-0.003
236.00	-0.001
235.50	-0.001
235.00	0.000
234.50	0.002
234.00	0.002
233.50	0.000
233.00	-0.002
232.50	-0.001
232.00	-0.001
231.50	0.000
231.00	0.000
230.50	0.001
230.00	0.001
229.50	0.000
229.00	0.000
228.50	0.000
228.00	0.000
227.50	0.001
227.00	0.002
226.50	0.002
226.00	0.003
225.50	0.002
225.00	0.001
224.50	0.001
224.00	0.001
223.50	0.001
223.00	0.003
222.50	0.003
222.00	0.003
221.50	0.003
221.00	0.005
220.50	0.009
220.00	0.011
219.50	0.010
219.00	0.011
218.50	0.009
218.00	0.009
217.50	0.008
217.00	0.007
216.50	0.009
216.00	0.012
215.50	0.014
215.00	0.017
214.50	0.015
214.00	0.014
213.50	0.014
213.00	0.014
212.50	0.014
212.00	0.015
211.50	0.014
211.00	0.016
210.50	0.015
210.00	0.018
209.50	0.022
209.00	0.023
208.50	0.020
208.00	0.020
207.50	0.020
207.00	0.022
206.50	0.021
206.00	0.020
205.50	0.022
205.00	0.023
204.50	0.025
204.00	0.029
203.50	0.028
203.00	0.026
202.50	0.028
202.00	0.028
201.50	0.029
201.00	0.026
200.50	0.023
200.00	0.027
199.50	0.030
199.00	0.038
198.50	0.044
198.00	0.049
197.50	0.044
197.00	0.043
196.50	0.031
196.00	0.033
195.50	0.037
195.00	0.061
194.50	0.096
194.00	0.103
193.50	0.115
193.00	0.138
192.50	0.168
192.00	0.210
191.50	0.256
191.00	0.308
190.50	0.352
190.00	0.387

