ｻﾝﾌﾟﾙ:	Ag_200_900__05%R.txt
ﾌｧｲﾙ名:	Ag_200_900__05%R.txt.UDS
分析日時:	'14:38:18, 09/27/2024
ｵﾍﾟﾚｰﾀ:	OB
ｺﾒﾝﾄ:	'

光度計
ﾓﾃﾞﾙ:	U-3900形分光光度計
ｼﾘｱﾙ No.:	'3004-010
ROM Ver.:	2J25300 07

装置条件
測定ﾓｰﾄﾞ:	波長ｽｷｬﾝ
ﾃﾞｰﾀﾓｰﾄﾞ:	%R
開始波長:	900.00 nm
終了波長:	200.00 nm
ｽｷｬﾝｽﾋﾟｰﾄﾞ:	60 nm/min
ｻﾝﾌﾟﾘﾝｸﾞ間隔:	0.10 nm
初期待ち時間:	0 s
繰り返し周期:	0.0 min
測定回数:	1
測定前ｵｰﾄｾﾞﾛ:	Off
ｽﾘｯﾄ:	0.5 nm
ﾎﾄﾏﾙ電圧:	自動制御
光源切換ﾓｰﾄﾞ:	自動切換
光源切換波長:	340.00 nm
ﾍﾞｰｽﾗｲﾝ設定:	ﾕｰｻﾞ 1
高分解能測定:	Off
D2ﾗﾝﾌﾟ:	On
WIﾗﾝﾌﾟ:	On
R/S反転:	Off

ﾋﾟｰｸ検出
検出方法:	Rectangular
感度:	1
しきい値:	0.0100

ﾋﾟｰｸ
ﾋﾟｰｸ No.	開始 (nm)	ﾋﾟｰｸ (nm)	終了 (nm)	高さ (%R)	ﾊﾞﾚｰ (nm)	ﾊﾞﾚｰ (%R)
1	900.00	898.90	898.20	84.290	898.20	87.344
2	898.20	897.40	896.80	84.590	896.80	85.651
3	896.80	896.40	895.30	82.750	895.30	84.986
4	895.30	894.70	894.40	81.018	894.40	85.708
5	894.40	893.80	893.10	82.077	893.10	86.590
6	893.10	891.90	891.40	83.185	891.40	86.241
7	891.40	890.80	889.60	84.759	889.60	87.929
8	889.60	888.40	887.90	82.432	887.90	84.952
9	887.90	887.40	886.50	80.069	886.50	86.149
10	886.50	885.80	885.10	81.892	885.10	86.778
11	885.10	884.70	883.60	82.746	883.60	86.342
12	883.60	883.30	882.70	85.059	882.70	86.789
13	882.70	882.30	881.00	81.881	881.00	87.855
14	881.00	879.60	879.10	81.988	879.10	86.946
15	879.10	878.60	878.00	81.808	878.00	88.082
16	878.00	877.40	876.40	84.840	876.40	88.041
17	876.40	875.20	873.90	82.012	873.90	88.358
18	873.90	873.20	873.00	84.812	873.00	86.454
19	873.00	872.40	872.10	85.049	872.10	87.114
20	872.10	871.50	871.20	83.424	871.20	86.191
21	871.20	870.60	869.80	82.885	869.80	85.978
22	869.80	868.00	867.10	82.243	867.10	88.347
23	867.10	866.60	865.10	84.552	865.10	89.511
24	865.10	864.60	864.20	85.000	864.20	87.814
25	864.20	863.90	863.30	85.013	863.30	87.530
26	863.30	862.60	862.10	83.683	862.10	87.076
27	862.10	860.50	859.70	83.460	859.70	88.219
28	859.70	859.10	858.70	83.563	858.70	88.931
29	858.70	857.80	856.70	84.282	856.70	87.395
30	856.70	855.00	854.60	84.114	854.60	86.895
31	854.60	853.50	853.00	84.674	853.00	87.414
32	853.00	852.60	851.30	85.298	851.30	87.618
33	851.30	850.90	850.10	84.943	850.10	87.828
34	850.10	849.80	849.00	84.988	849.00	88.958
35	849.00	848.30	848.00	86.239	848.00	88.550
36	848.00	847.20	846.90	87.535	846.90	88.767
37	846.90	846.20	845.60	83.278	845.60	88.737
38	845.60	844.40	843.70	84.570	843.70	88.271
39	843.70	843.20	842.60	86.082	842.60	88.916
40	842.60	842.30	841.00	86.236	841.00	88.859
41	841.00	840.00	839.30	86.158	839.30	89.332
42	839.30	838.00	837.70	86.222	837.70	88.241
43	837.70	837.10	836.50	85.070	836.50	88.936
44	836.50	835.90	835.50	85.737	835.50	87.515
45	835.50	834.90	834.30	85.500	834.30	88.851
46	834.30	834.00	833.50	86.382	833.50	88.916
47	833.50	833.20	832.70	87.237	832.70	89.774
48	832.70	831.90	831.30	85.537	831.30	89.772
49	831.30	830.90	830.30	87.301	830.30	89.233
50	830.30	830.00	829.30	86.895	829.30	90.107
51	829.30	828.40	827.90	86.428	827.90	88.500
52	827.90	827.70	827.10	87.003	827.10	90.058
53	827.10	826.20	825.20	87.208	825.20	90.268
54	825.20	824.00	823.70	87.183	823.70	88.179
55	823.70	823.50	822.50	87.386	822.50	89.960
56	822.50	821.60	820.80	86.986	820.80	90.632
57	820.80	820.20	819.70	87.599	819.70	90.344
58	819.70	818.80	818.60	88.009	818.60	88.825
59	818.60	817.30	816.80	87.746	816.80	90.779
60	816.80	816.20	815.60	87.048	815.60	88.851
61	815.60	815.00	814.30	87.195	814.30	90.707
62	814.30	813.90	813.30	87.600	813.30	89.691
63	813.30	812.20	811.80	88.326	811.80	90.272
64	811.80	811.30	810.00	87.105	810.00	90.148
65	810.00	809.50	809.20	87.965	809.20	90.553
66	809.20	808.80	807.50	87.585	807.50	90.249
67	807.50	807.30	807.00	89.149	807.00	90.304
68	807.00	806.40	805.40	88.486	805.40	90.164
69	805.40	805.00	803.40	88.703	803.40	90.310
70	803.40	802.80	802.10	88.569	802.10	91.453
71	802.10	801.40	800.70	88.767	800.70	90.059
72	800.70	800.40	798.70	88.224	798.70	90.814
73	798.70	797.40	796.60	88.842	796.60	90.192
74	796.60	795.80	794.60	89.104	794.60	90.898
75	794.60	794.00	793.60	88.563	793.60	90.692
76	793.60	793.00	792.30	88.852	792.30	90.715
77	792.30	791.60	790.90	89.940	790.90	90.780
78	790.90	789.60	787.90	89.438	787.90	91.291
79	787.90	787.60	786.90	90.086	786.90	90.637
80	786.90	786.40	785.90	89.253	785.90	91.332
81	785.90	784.70	783.50	89.407	783.50	91.946
82	783.50	782.90	781.70	89.835	781.70	91.000
83	781.70	780.90	780.50	89.415	780.50	90.563
84	780.50	780.00	778.90	89.741	778.90	90.701
85	778.90	778.60	777.70	89.460	777.70	90.822
86	777.70	777.10	776.20	90.104	776.20	91.618
87	776.20	775.70	775.10	90.565	775.10	91.844
88	775.10	774.70	774.40	90.662	774.40	91.703
89	774.40	773.40	772.90	90.371	772.90	91.876
90	772.90	772.50	771.50	90.570	771.50	91.584
91	771.50	770.90	770.40	90.075	770.40	91.769
92	770.40	769.10	768.10	90.222	768.10	91.309
93	768.10	767.10	765.90	89.786	765.90	90.939
94	765.90	765.40	764.50	90.263	764.50	91.698
95	764.50	763.00	762.40	90.469	762.40	91.696
96	762.40	760.90	759.80	90.300	759.80	91.488
97	759.80	759.20	759.00	90.898	759.00	91.665
98	759.00	757.70	757.30	90.656	757.30	91.607
99	757.30	756.90	755.80	90.586	755.80	91.551
100	755.80	755.30	754.90	90.442	754.90	91.435
101	754.90	754.30	754.00	90.835	754.00	91.625
102	754.00	752.70	751.70	90.244	751.70	92.047
103	751.70	751.20	750.20	91.044	750.20	91.748
104	750.20	749.60	749.00	90.782	749.00	91.609
105	749.00	748.70	748.20	91.085	748.20	92.359
106	748.20	747.60	746.30	91.593	746.30	93.038
107	746.30	745.90	744.10	91.999	744.10	93.352
108	744.10	743.30	742.70	92.834	742.70	93.799
109	742.70	742.30	741.90	92.749	741.90	93.629
110	741.90	739.90	739.00	91.902	739.00	92.247
111	739.00	738.00	737.40	91.128	737.40	92.212
112	737.40	736.40	735.90	91.216	735.90	92.401
113	735.90	735.20	734.50	91.516	734.50	92.043
114	734.50	734.20	733.60	91.274	733.60	91.878
115	733.60	732.30	730.30	90.850	730.30	92.463
116	730.30	729.90	728.80	91.295	728.80	92.505
117	728.80	727.00	725.50	91.082	725.50	91.887
118	725.50	725.20	724.80	91.460	724.80	91.810
119	724.80	724.40	723.90	91.383	723.90	92.127
120	723.90	723.30	722.10	91.375	722.10	92.445
121	722.10	721.20	720.60	90.985	720.60	92.154
122	720.60	720.20	719.90	91.646	719.90	91.984
123	719.90	719.40	718.80	91.509	718.80	91.927
124	718.80	718.10	717.90	91.393	717.90	91.717
125	717.90	717.10	716.80	91.494	716.80	91.754
126	716.80	716.20	715.60	91.371	715.60	92.099
127	715.60	714.50	714.20	91.462	714.20	92.065
128	714.20	713.70	713.20	91.538	713.20	91.958
129	713.20	711.90	710.70	91.349	710.70	92.106
130	710.70	709.70	709.00	90.971	709.00	92.197
131	709.00	708.10	707.60	91.279	707.60	91.981
132	707.60	707.00	706.60	91.063	706.60	91.751
133	706.60	706.30	705.80	91.330	705.80	91.794
134	705.80	705.10	704.50	91.545	704.50	92.021
135	704.50	704.20	703.60	91.501	703.60	91.933
136	703.60	703.20	702.50	91.494	702.50	92.163
137	702.50	701.80	701.40	91.633	701.40	91.907
138	701.40	700.70	700.20	91.552	700.20	91.775
139	700.20	699.60	697.80	91.311	697.80	92.048
140	697.80	697.20	696.30	91.423	696.30	92.051
141	696.30	695.80	695.30	91.706	695.30	92.075
142	695.30	694.60	693.50	91.428	693.50	91.815
143	693.50	692.40	691.90	91.307	691.90	91.992
144	691.90	690.60	689.80	91.180	689.80	92.268
145	689.80	689.20	688.70	91.629	688.70	91.978
146	688.70	687.40	686.90	91.304	686.90	92.083
147	686.90	686.50	686.10	91.699	686.10	91.968
148	686.10	685.50	684.90	91.766	684.90	91.872
149	684.90	684.40	684.00	91.725	684.00	92.012
150	684.00	683.50	683.00	91.583	683.00	92.232
151	683.00	682.10	681.50	91.476	681.50	92.157
152	681.50	681.10	680.60	91.601	680.60	91.795
153	680.60	679.80	678.90	91.478	678.90	91.711
154	678.90	678.00	677.50	91.429	677.50	91.895
155	677.50	676.60	676.00	91.327	676.00	91.805
156	676.00	675.50	674.40	91.247	674.40	91.847
157	674.40	673.80	672.70	91.222	672.70	91.586
158	672.70	672.40	670.90	91.247	670.90	91.895
159	670.90	669.20	668.60	91.467	668.60	91.978
160	668.60	668.00	667.50	91.336	667.50	92.119
161	667.50	667.10	666.20	91.614	666.20	91.861
162	666.20	665.80	665.20	91.418	665.20	91.843
163	665.20	664.90	663.10	91.395	663.10	91.778
164	663.10	662.70	662.10	91.391	662.10	91.814
165	662.10	661.10	660.70	91.510	660.70	91.690
166	660.70	660.20	659.30	91.483	659.30	92.077
167	659.30	658.60	657.30	91.234	657.30	91.825
168	657.30	656.80	656.20	91.584	656.20	91.807
169	656.20	655.70	655.20	91.451	655.20	91.964
170	655.20	653.90	653.60	91.331	653.60	91.640
171	653.60	653.00	652.20	91.201	652.20	91.756
172	652.20	651.70	651.20	91.372	651.20	92.053
173	651.20	650.70	650.40	91.572	650.40	92.073
174	650.40	649.80	649.30	91.660	649.30	91.993
175	649.30	648.00	647.30	91.390	647.30	91.895
176	647.30	646.90	646.20	91.131	646.20	91.615
177	646.20	645.80	645.60	91.457	645.60	91.630
178	645.60	644.80	644.40	91.421	644.40	91.734
179	644.40	644.00	643.50	91.478	643.50	91.982
180	643.50	642.80	642.40	91.243	642.40	91.658
181	642.40	640.70	640.10	91.194	640.10	91.847
182	640.10	639.60	638.40	91.400	638.40	91.760
183	638.40	638.00	637.60	91.559	637.60	91.731
184	637.60	637.10	636.80	91.447	636.80	91.711
185	636.80	636.00	635.80	91.553	635.80	91.722
186	635.80	635.20	634.80	91.391	634.80	91.580
187	634.80	633.90	633.60	91.405	633.60	91.654
188	633.60	633.10	632.50	91.444	632.50	91.870
189	632.50	632.00	631.60	91.138	631.60	91.593
190	631.60	631.20	630.60	91.303	630.60	91.692
191	630.60	630.30	629.80	91.319	629.80	91.543
192	629.80	629.20	627.90	91.288	627.90	91.579
193	627.90	626.70	626.20	91.098	626.20	91.586
194	626.20	625.60	624.40	91.227	624.40	91.791
195	624.40	623.50	622.90	91.260	622.90	91.831
196	622.90	622.50	621.90	91.318	621.90	91.707
197	621.90	621.40	620.90	91.450	620.90	91.628
198	620.90	620.40	619.80	91.197	619.80	91.557
199	619.80	619.00	618.20	91.165	618.20	91.781
200	618.20	617.50	616.90	91.366	616.90	91.656
201	616.90	616.10	615.00	90.942	615.00	91.469
202	615.00	614.10	612.60	91.130	612.60	91.609
203	612.60	611.60	611.00	91.194	611.00	91.526
204	611.00	610.20	609.80	91.152	609.80	91.540
205	609.80	609.30	608.60	91.314	608.60	91.618
206	608.60	606.80	605.70	91.255	605.70	91.415
207	605.70	605.40	604.30	91.279	604.30	91.722
208	604.30	603.80	602.70	91.136	602.70	91.525
209	602.70	602.30	601.30	91.125	601.30	91.435
210	601.30	601.00	600.60	91.170	600.60	91.431
211	600.60	600.10	599.80	90.795	599.80	91.446
212	599.80	599.00	598.30	90.934	598.30	91.361
213	598.30	597.90	597.30	90.871	597.30	91.286
214	597.30	596.60	595.80	90.716	595.80	91.254
215	595.80	594.90	594.30	90.845	594.30	91.235
216	594.30	593.20	592.60	90.688	592.60	91.548
217	592.60	591.30	589.60	90.805	589.60	91.390
218	589.60	589.20	588.70	91.134	588.70	91.422
219	588.70	588.20	587.70	91.063	587.70	91.494
220	587.70	587.40	586.10	91.074	586.10	91.809
221	586.10	585.50	583.80	91.179	583.80	91.956
222	583.80	583.20	582.90	91.217	582.90	91.460
223	582.90	580.10	579.40	90.445	579.40	90.867
224	579.40	579.20	578.90	90.691	578.90	90.840
225	578.90	578.10	577.10	90.664	577.10	91.083
226	577.10	576.60	576.00	90.648	576.00	90.950
227	576.00	575.30	574.70	90.365	574.70	90.836
228	574.70	573.90	573.50	90.599	573.50	90.863
229	573.50	572.70	572.10	90.428	572.10	90.776
230	572.10	571.30	570.80	90.437	570.80	91.007
231	570.80	569.80	569.00	90.512	569.00	90.968
232	569.00	567.60	566.90	90.321	566.90	90.690
233	566.90	566.20	565.80	90.172	565.80	90.691
234	565.80	565.10	564.50	90.204	564.50	90.577
235	564.50	564.00	563.50	90.283	563.50	90.572
236	563.50	563.00	562.30	90.076	562.30	90.406
237	562.30	561.80	561.20	90.243	561.20	90.643
238	561.20	559.90	559.40	89.980	559.40	90.630
239	559.40	558.90	558.30	90.061	558.30	90.422
240	558.30	557.70	557.10	90.080	557.10	90.357
241	557.10	555.90	555.50	89.877	555.50	90.300
242	555.50	555.00	554.10	89.992	554.10	90.340
243	554.10	553.90	553.30	90.091	553.30	90.282
244	553.30	552.70	551.90	90.063	551.90	90.386
245	551.90	551.30	550.90	90.046	550.90	90.347
246	550.90	550.60	550.00	89.872	550.00	90.214
247	550.00	549.20	548.30	89.759	548.30	90.208
248	548.30	547.30	545.60	89.793	545.60	90.335
249	545.60	544.60	544.40	89.908	544.40	89.994
250	544.40	543.60	542.70	89.604	542.70	90.072
251	542.70	541.70	541.00	89.787	541.00	89.991
252	541.00	540.70	539.50	89.839	539.50	90.216
253	539.50	538.40	537.70	89.790	537.70	90.147
254	537.70	537.30	536.70	89.801	536.70	90.086
255	536.70	536.10	535.20	89.867	535.20	90.248
256	535.20	534.60	534.20	89.873	534.20	90.117
257	534.20	534.00	533.20	89.930	533.20	90.201
258	533.20	532.60	532.20	89.714	532.20	90.102
259	532.20	531.70	531.20	89.819	531.20	90.149
260	531.20	530.50	530.00	89.668	530.00	90.100
261	530.00	529.60	529.20	89.867	529.20	90.139
262	529.20	528.70	528.30	89.867	528.30	90.268
263	528.30	527.50	527.10	90.068	527.10	90.189
264	527.10	526.60	526.00	89.827	526.00	90.260
265	526.00	525.00	524.60	90.101	524.60	90.268
266	524.60	523.40	522.10	89.938	522.10	90.436
267	522.10	521.40	520.80	90.303	520.80	90.610
268	520.80	520.10	519.30	90.239	519.30	90.789
269	519.30	518.80	517.70	90.351	517.70	90.699
270	517.70	517.20	515.90	90.407	515.90	90.696
271	515.90	514.70	514.10	90.443	514.10	90.616
272	514.10	513.30	513.10	90.546	513.10	90.655
273	513.10	510.40	510.10	90.371	510.10	90.539
274	510.10	508.80	508.20	90.072	508.20	90.554
275	508.20	507.50	506.90	90.205	506.90	90.453
276	506.90	504.90	504.40	89.940	504.40	90.142
277	504.40	503.80	503.30	89.917	503.30	90.255
278	503.30	502.70	501.90	89.829	501.90	90.148
279	501.90	501.00	500.50	89.764	500.50	90.194
280	500.50	500.00	499.60	89.729	499.60	90.054
281	499.60	499.20	497.90	89.683	497.90	90.080
282	497.90	497.50	496.90	89.822	496.90	90.215
283	496.90	495.20	494.00	89.559	494.00	90.049
284	494.00	493.60	493.20	89.860	493.20	90.104
285	493.20	492.70	491.40	89.630	491.40	90.007
286	491.40	491.10	490.00	89.815	490.00	89.986
287	490.00	489.60	489.00	89.737	489.00	90.112
288	489.00	488.40	487.80	89.812	487.80	90.074
289	487.80	487.50	486.80	89.760	486.80	90.061
290	486.80	485.60	484.70	89.711	484.70	90.193
291	484.70	484.10	483.70	89.775	483.70	90.132
292	483.70	483.30	482.90	89.830	482.90	90.199
293	482.90	482.40	482.00	89.784	482.00	89.988
294	482.00	481.70	481.10	89.735	481.10	89.989
295	481.10	480.10	479.60	89.684	479.60	89.829
296	479.60	478.40	477.90	89.342	477.90	89.567
297	477.90	477.40	477.00	89.284	477.00	89.619
298	477.00	475.80	475.20	89.249	475.20	89.594
299	475.20	473.70	473.40	89.227	473.40	89.395
300	473.40	472.90	472.40	89.245	472.40	89.509
301	472.40	471.80	471.30	89.226	471.30	89.477
302	471.30	470.70	469.40	89.081	469.40	89.430
303	469.40	468.80	468.50	89.130	468.50	89.285
304	468.50	467.90	467.60	89.146	467.60	89.421
305	467.60	467.20	466.20	88.996	466.20	89.268
306	466.20	465.80	464.80	88.972	464.80	89.287
307	464.80	463.70	462.90	88.835	462.90	89.024
308	462.90	461.70	461.20	88.757	461.20	88.903
309	461.20	460.20	459.20	88.705	459.20	88.975
310	459.20	457.40	457.00	88.604	457.00	88.759
311	457.00	456.00	455.50	88.399	455.50	88.525
312	455.50	454.60	454.30	88.324	454.30	88.456
313	454.30	451.90	451.40	88.054	451.40	88.339
314	451.40	451.00	450.50	87.984	450.50	88.225
315	450.50	449.20	448.70	87.316	448.70	87.842
316	448.70	446.70	446.20	87.090	446.20	87.384
317	446.20	445.50	444.50	86.873	444.50	87.268
318	444.50	444.00	443.70	86.899	443.70	87.160
319	443.70	442.40	441.90	86.415	441.90	86.727
320	441.90	441.00	440.70	86.137	440.70	86.396
321	440.70	440.10	439.50	86.010	439.50	86.291
322	439.50	437.50	436.90	85.270	436.90	85.506
323	436.90	435.70	435.10	84.807	435.10	84.984
324	435.10	434.30	433.80	84.183	433.80	84.529
325	433.80	427.60	427.20	81.169	427.20	81.490
326	427.20	411.80	411.20	71.639	411.20	71.889
327	411.20	409.40	409.10	71.198	409.10	71.484
328	409.10	408.60	408.10	70.925	408.10	71.362
329	408.10	407.60	406.90	70.994	406.90	71.513
330	406.90	406.00	404.90	70.787	404.90	71.007
331	404.90	403.20	402.80	70.861	402.80	71.136
332	402.80	402.20	401.00	70.758	401.00	71.289
333	401.00	399.80	398.90	71.004	398.90	71.376
334	398.90	397.70	397.10	70.925	397.10	71.391
335	397.10	396.70	395.70	71.086	395.70	71.604
336	395.70	395.20	394.60	71.077	394.60	71.625
337	394.60	394.20	393.70	71.266	393.70	71.600
338	393.70	393.20	392.60	71.287	392.60	71.551
339	392.60	391.90	390.80	70.999	390.80	71.515
340	390.80	390.40	390.10	71.298	390.10	71.788
341	390.10	389.40	388.60	71.278	388.60	71.910
342	388.60	387.90	387.50	71.405	387.50	72.044
343	387.50	387.00	385.80	71.568	385.80	72.086
344	385.80	385.10	384.50	71.580	384.50	71.967
345	384.50	383.60	383.10	71.530	383.10	72.206
346	383.10	382.70	382.00	71.867	382.00	72.494
347	382.00	381.20	380.60	71.891	380.60	72.522
348	380.60	380.10	379.50	72.045	379.50	72.505
349	379.50	379.00	378.50	72.029	378.50	72.369
350	378.50	378.00	376.80	71.991	376.80	72.759
351	376.80	376.30	374.50	72.396	374.50	72.960
352	374.50	374.10	373.70	72.461	373.70	73.117
353	373.70	373.30	372.50	72.411	372.50	72.996
354	372.50	372.00	371.10	72.607	371.10	73.032
355	371.10	370.70	370.30	72.746	370.30	73.027
356	370.30	369.50	368.90	72.454	368.90	73.092
357	368.90	368.40	367.70	72.941	367.70	73.248
358	367.70	367.00	365.70	72.779	365.70	73.382
359	365.70	365.20	364.60	72.821	364.60	73.068
360	364.60	364.30	363.90	72.737	363.90	73.067
361	363.90	363.40	362.80	72.412	362.80	72.793
362	362.80	361.60	361.10	72.052	361.10	72.610
363	361.10	360.50	360.30	72.061	360.30	72.484
364	360.30	357.60	356.80	71.608	356.80	71.884
365	356.80	356.20	355.80	71.575	355.80	71.969
366	355.80	355.20	354.80	71.169	354.80	71.828
367	354.80	354.20	353.60	71.198	353.60	71.653
368	353.60	353.10	352.60	70.928	352.60	71.292
369	352.60	352.00	351.60	70.426	351.60	71.011
370	351.60	350.70	350.20	70.290	350.20	70.704
371	350.20	349.70	349.10	70.069	349.10	70.470
372	349.10	348.60	347.90	69.806	347.90	70.423
373	347.90	346.30	346.10	69.692	346.10	70.040
374	346.10	344.80	344.30	68.570	344.30	69.018
375	344.30	343.50	343.20	68.667	343.20	69.065
376	343.20	340.30	339.60	67.405	339.60	71.886
377	339.60	339.30	338.70	71.073	338.70	71.313
378	338.70	337.80	337.40	70.260	337.40	70.404
379	337.40	307.40	307.00	2.703	307.00	2.734
380	307.00	306.60	273.10	2.683	273.10	11.270
381	273.10	272.70	271.30	11.230	271.30	11.451
382	271.30	270.80	269.90	11.329	269.90	11.470
383	269.90	268.80	268.40	11.376	268.40	11.453
384	268.40	265.90	265.60	11.162	265.60	11.205
385	265.60	237.20	205.70	0.692	205.70	34.873

ﾃﾞｰﾀﾘｽﾄ
nm	%R
900.00	87.970
899.90	87.323
899.80	86.740
899.70	86.607
899.60	86.877
899.50	87.472
899.40	88.218
899.30	88.287
899.20	86.884
899.10	85.350
899.00	84.770
898.90	84.290
898.80	84.476
898.70	84.343
898.60	84.644
898.50	85.340
898.40	85.977
898.30	86.702
898.20	87.344
898.10	86.422
898.00	86.274
897.90	86.551
897.80	86.462
897.70	85.990
897.60	85.660
897.50	84.744
897.40	84.590
897.30	84.623
897.20	84.918
897.10	85.292
897.00	85.164
896.90	85.074
896.80	85.651
896.70	84.953
896.60	83.794
896.50	83.154
896.40	82.750
896.30	83.020
896.20	83.955
896.10	83.800
896.00	84.506
895.90	83.872
895.80	83.948
895.70	83.448
895.60	83.753
895.50	84.367
895.40	84.773
895.30	84.986
895.20	84.779
895.10	84.264
895.00	83.415
894.90	82.689
894.80	81.922
894.70	81.018
894.60	82.668
894.50	84.609
894.40	85.708
894.30	85.402
894.20	84.880
894.10	84.308
894.00	82.965
893.90	82.301
893.80	82.077
893.70	82.316
893.60	82.474
893.50	84.568
893.40	85.789
893.30	86.090
893.20	85.967
893.10	86.590
893.00	85.926
892.90	86.022
892.80	85.867
892.70	85.785
892.60	84.567
892.50	85.220
892.40	85.400
892.30	85.593
892.20	84.178
892.10	83.770
892.00	83.769
891.90	83.185
891.80	83.683
891.70	84.905
891.60	85.260
891.50	86.161
891.40	86.241
891.30	86.212
891.20	85.483
891.10	85.955
891.00	86.007
890.90	85.481
890.80	84.759
890.70	85.854
890.60	86.525
890.50	85.830
890.40	85.724
890.30	86.084
890.20	86.397
890.10	86.501
890.00	86.581
889.90	86.731
889.80	87.082
889.70	87.647
889.60	87.929
889.50	87.055
889.40	85.351
889.30	85.006
889.20	83.811
889.10	83.561
889.00	82.626
888.90	83.309
888.80	85.023
888.70	84.724
888.60	84.324
888.50	83.737
888.40	82.432
888.30	82.827
888.20	82.948
888.10	83.299
888.00	84.257
887.90	84.952
887.80	84.469
887.70	83.509
887.60	81.699
887.50	80.375
887.40	80.069
887.30	80.252
887.20	80.809
887.10	82.371
887.00	83.133
886.90	84.092
886.80	84.447
886.70	84.335
886.60	85.353
886.50	86.149
886.40	85.357
886.30	84.194
886.20	83.399
886.10	83.301
886.00	82.546
885.90	82.273
885.80	81.892
885.70	82.149
885.60	84.656
885.50	85.190
885.40	86.167
885.30	85.540
885.20	86.383
885.10	86.778
885.00	85.484
884.90	84.367
884.80	82.944
884.70	82.746
884.60	83.347
884.50	83.198
884.40	83.526
884.30	83.308
884.20	83.900
884.10	84.531
884.00	85.469
883.90	84.791
883.80	85.391
883.70	85.958
883.60	86.342
883.50	86.307
883.40	85.914
883.30	85.059
883.20	85.348
883.10	85.505
883.00	86.265
882.90	86.650
882.80	86.430
882.70	86.789
882.60	86.631
882.50	85.454
882.40	83.729
882.30	81.881
882.20	82.065
882.10	82.182
882.00	82.564
881.90	83.382
881.80	83.911
881.70	84.310
881.60	85.262
881.50	84.915
881.40	85.353
881.30	86.011
881.20	87.143
881.10	87.608
881.00	87.855
880.90	86.846
880.80	86.270
880.70	84.923
880.60	83.307
880.50	83.369
880.40	83.340
880.30	84.178
880.20	85.354
880.10	84.395
880.00	84.255
879.90	83.753
879.80	83.328
879.70	82.637
879.60	81.988
879.50	82.841
879.40	84.463
879.30	85.796
879.20	86.331
879.10	86.946
879.00	85.991
878.90	86.237
878.80	84.960
878.70	82.761
878.60	81.808
878.50	81.819
878.40	82.643
878.30	84.040
878.20	85.162
878.10	86.711
878.00	88.082
877.90	87.867
877.80	87.559
877.70	86.588
877.60	85.365
877.50	84.943
877.40	84.840
877.30	85.194
877.20	85.876
877.10	85.913
877.00	86.314
876.90	86.369
876.80	86.731
876.70	86.571
876.60	86.823
876.50	87.363
876.40	88.041
876.30	87.170
876.20	87.230
876.10	84.997
876.00	84.757
875.90	84.698
875.80	84.764
875.70	84.679
875.60	85.638
875.50	85.247
875.40	84.970
875.30	84.016
875.20	82.012
875.10	82.144
875.00	82.666
874.90	83.696
874.80	86.269
874.70	86.651
874.60	87.472
874.50	88.236
874.40	86.992
874.30	86.667
874.20	86.775
874.10	86.292
874.00	86.840
873.90	88.358
873.80	88.245
873.70	87.381
873.60	85.769
873.50	85.485
873.40	85.331
873.30	85.206
873.20	84.812
873.10	86.213
873.00	86.454
872.90	86.095
872.80	86.096
872.70	85.629
872.60	85.689
872.50	85.425
872.40	85.049
872.30	85.684
872.20	85.584
872.10	87.114
872.00	86.889
871.90	86.965
871.80	85.750
871.70	85.207
871.60	84.847
871.50	83.424
871.40	84.322
871.30	84.888
871.20	86.191
871.10	85.987
871.00	85.672
870.90	86.167
870.80	84.694
870.70	84.055
870.60	82.885
870.50	83.493
870.40	84.311
870.30	84.206
870.20	84.710
870.10	84.646
870.00	85.154
869.90	85.600
869.80	85.978
869.70	85.765
869.60	85.554
869.50	85.318
869.40	85.009
869.30	84.647
869.20	84.436
869.10	83.621
869.00	83.380
868.90	82.486
868.80	82.794
868.70	83.858
868.60	82.687
868.50	83.064
868.40	83.139
868.30	83.845
868.20	83.981
868.10	82.397
868.00	82.243
867.90	82.268
867.80	83.218
867.70	82.813
867.60	83.647
867.50	84.098
867.40	85.447
867.30	87.365
867.20	87.324
867.10	88.347
867.00	87.814
866.90	86.773
866.80	86.334
866.70	84.976
866.60	84.552
866.50	85.899
866.40	86.702
866.30	86.484
866.20	86.852
866.10	87.411
866.00	87.165
865.90	86.352
865.80	85.940
865.70	86.975
865.60	87.732
865.50	87.574
865.40	88.157
865.30	88.233
865.20	88.841
865.10	89.511
865.00	88.284
864.90	87.607
864.80	85.546
864.70	85.484
864.60	85.000
864.50	85.566
864.40	86.121
864.30	87.298
864.20	87.814
864.10	87.152
864.00	85.666
863.90	85.013
863.80	85.723
863.70	85.926
863.60	85.780
863.50	87.045
863.40	87.233
863.30	87.530
863.20	86.676
863.10	85.861
863.00	85.573
862.90	85.187
862.80	85.410
862.70	84.438
862.60	83.683
862.50	84.320
862.40	85.118
862.30	86.288
862.20	86.901
862.10	87.076
862.00	86.930
861.90	86.359
861.80	86.234
861.70	85.847
861.60	86.546
861.50	85.938
861.40	85.546
861.30	85.141
861.20	84.992
861.10	84.093
861.00	83.604
860.90	83.584
860.80	84.067
860.70	83.736
860.60	83.860
860.50	83.460
860.40	84.138
860.30	84.913
860.20	86.360
860.10	86.482
860.00	86.238
859.90	86.946
859.80	88.202
859.70	88.219
859.60	87.991
859.50	86.919
859.40	86.094
859.30	84.439
859.20	83.881
859.10	83.563
859.00	84.559
858.90	86.642
858.80	87.882
858.70	88.931
858.60	88.649
858.50	88.110
858.40	87.048
858.30	86.505
858.20	85.922
858.10	84.985
858.00	84.479
857.90	84.313
857.80	84.282
857.70	84.391
857.60	84.551
857.50	85.006
857.40	85.143
857.30	85.816
857.20	85.747
857.10	85.949
857.00	85.448
856.90	86.299
856.80	86.987
856.70	87.395
856.60	86.838
856.50	86.653
856.40	85.995
856.30	86.857
856.20	86.990
856.10	86.083
856.00	86.629
855.90	86.494
855.80	87.781
855.70	87.843
855.60	86.656
855.50	86.082
855.40	86.315
855.30	86.709
855.20	85.873
855.10	85.713
855.00	84.114
854.90	85.003
854.80	86.231
854.70	86.551
854.60	86.895
854.50	86.203
854.40	86.683
854.30	86.663
854.20	85.913
854.10	85.913
854.00	86.125
853.90	86.534
853.80	86.420
853.70	86.765
853.60	85.010
853.50	84.674
853.40	85.007
853.30	85.293
853.20	85.801
853.10	86.654
853.00	87.414
852.90	86.907
852.80	86.456
852.70	86.415
852.60	85.298
852.50	85.794
852.40	85.989
852.30	86.486
852.20	86.910
852.10	87.070
852.00	86.752
851.90	86.779
851.80	86.833
851.70	86.504
851.60	86.963
851.50	87.380
851.40	87.399
851.30	87.618
851.20	86.028
851.10	86.737
851.00	85.619
850.90	84.943
850.80	85.747
850.70	85.660
850.60	86.191
850.50	87.375
850.40	87.680
850.30	87.090
850.20	87.195
850.10	87.828
850.00	86.414
849.90	86.053
849.80	84.988
849.70	86.056
849.60	86.195
849.50	86.992
849.40	87.137
849.30	86.442
849.20	87.661
849.10	88.773
849.00	88.958
848.90	88.408
848.80	88.066
848.70	88.002
848.60	86.293
848.50	86.262
848.40	86.281
848.30	86.239
848.20	86.611
848.10	88.145
848.00	88.550
847.90	88.539
847.80	88.471
847.70	88.332
847.60	88.297
847.50	88.110
847.40	88.075
847.30	87.817
847.20	87.535
847.10	87.943
847.00	88.529
846.90	88.767
846.80	88.579
846.70	88.638
846.60	87.462
846.50	86.653
846.40	85.167
846.30	84.063
846.20	83.278
846.10	83.747
846.00	84.342
845.90	86.051
845.80	87.534
845.70	88.647
845.60	88.737
845.50	87.873
845.40	87.373
845.30	87.456
845.20	86.411
845.10	86.617
845.00	87.253
844.90	87.516
844.80	86.917
844.70	86.744
844.60	85.499
844.50	85.508
844.40	84.570
844.30	85.256
844.20	86.147
844.10	86.302
844.00	87.501
843.90	88.246
843.80	87.968
843.70	88.271
843.60	88.094
843.50	87.505
843.40	86.635
843.30	86.316
843.20	86.082
843.10	86.601
843.00	86.518
842.90	87.694
842.80	88.349
842.70	88.710
842.60	88.916
842.50	88.233
842.40	87.274
842.30	86.236
842.20	86.353
842.10	86.511
842.00	87.754
841.90	88.272
841.80	87.865
841.70	87.581
841.60	86.936
841.50	87.831
841.40	87.043
841.30	87.834
841.20	87.951
841.10	88.389
841.00	88.859
840.90	88.309
840.80	87.956
840.70	87.411
840.60	88.029
840.50	87.929
840.40	87.441
840.30	86.748
840.20	86.288
840.10	86.894
840.00	86.158
839.90	86.617
839.80	86.741
839.70	87.976
839.60	88.538
839.50	88.744
839.40	88.744
839.30	89.332
839.20	89.331
839.10	89.113
839.00	88.291
838.90	87.422
838.80	87.791
838.70	88.342
838.60	88.747
838.50	88.306
838.40	87.424
838.30	87.644
838.20	87.294
838.10	86.462
838.00	86.222
837.90	87.403
837.80	87.506
837.70	88.241
837.60	87.860
837.50	87.502
837.40	87.306
837.30	86.025
837.20	85.182
837.10	85.070
837.00	85.583
836.90	86.905
836.80	87.417
836.70	87.834
836.60	88.418
836.50	88.936
836.40	88.072
836.30	87.054
836.20	85.808
836.10	85.822
836.00	86.014
835.90	85.737
835.80	85.904
835.70	86.099
835.60	86.673
835.50	87.515
835.40	87.282
835.30	87.306
835.20	86.807
835.10	86.508
835.00	85.774
834.90	85.500
834.80	85.786
834.70	87.234
834.60	87.686
834.50	88.392
834.40	88.801
834.30	88.851
834.20	87.902
834.10	87.196
834.00	86.382
833.90	87.149
833.80	87.060
833.70	87.950
833.60	88.513
833.50	88.916
833.40	88.908
833.30	88.117
833.20	87.237
833.10	87.606
833.00	88.028
832.90	88.662
832.80	88.834
832.70	89.774
832.60	88.636
832.50	88.108
832.40	87.011
832.30	86.055
832.20	86.228
832.10	85.877
832.00	86.268
831.90	85.537
831.80	85.669
831.70	86.364
831.60	86.549
831.50	87.225
831.40	88.073
831.30	89.772
831.20	89.581
831.10	88.911
831.00	88.139
830.90	87.301
830.80	88.178
830.70	87.990
830.60	88.165
830.50	87.936
830.40	88.789
830.30	89.233
830.20	88.357
830.10	87.762
830.00	86.895
829.90	86.974
829.80	87.373
829.70	88.325
829.60	89.087
829.50	89.241
829.40	89.917
829.30	90.107
829.20	89.449
829.10	88.765
829.00	88.522
828.90	88.280
828.80	88.502
828.70	87.708
828.60	86.684
828.50	86.596
828.40	86.428
828.30	87.210
828.20	87.885
828.10	88.225
828.00	88.025
827.90	88.500
827.80	87.144
827.70	87.003
827.60	87.005
827.50	87.813
827.40	89.622
827.30	89.756
827.20	89.747
827.10	90.058
827.00	89.711
826.90	89.392
826.80	88.834
826.70	88.737
826.60	88.294
826.50	88.243
826.40	87.664
826.30	87.656
826.20	87.208
826.10	87.229
826.00	87.977
825.90	88.004
825.80	88.063
825.70	89.348
825.60	89.603
825.50	89.624
825.40	89.517
825.30	90.163
825.20	90.268
825.10	89.622
825.00	89.761
824.90	89.612
824.80	89.738
824.70	89.685
824.60	89.444
824.50	88.506
824.40	87.922
824.30	87.948
824.20	87.462
824.10	87.652
824.00	87.183
823.90	88.038
823.80	88.096
823.70	88.179
823.60	87.785
823.50	87.386
823.40	87.421
823.30	88.000
823.20	88.045
823.10	87.810
823.00	88.017
822.90	88.317
822.80	88.829
822.70	89.221
822.60	89.442
822.50	89.960
822.40	89.870
822.30	89.797
822.20	88.893
822.10	88.734
822.00	88.369
821.90	88.262
821.80	87.825
821.70	87.436
821.60	86.986
821.50	87.271
821.40	87.604
821.30	87.673
821.20	88.410
821.10	89.478
821.00	90.058
820.90	90.358
820.80	90.632
820.70	90.418
820.60	90.063
820.50	89.168
820.40	88.060
820.30	87.755
820.20	87.599
820.10	88.212
820.00	88.697
819.90	88.986
819.80	89.459
819.70	90.344
819.60	89.973
819.50	89.582
819.40	89.978
819.30	89.519
819.20	89.611
819.10	89.231
819.00	88.107
818.90	88.055
818.80	88.009
818.70	88.602
818.60	88.825
818.50	88.318
818.40	88.166
818.30	88.170
818.20	88.195
818.10	87.963
818.00	87.951
817.90	87.892
817.80	88.332
817.70	88.860
817.60	88.157
817.50	87.905
817.40	87.907
817.30	87.746
817.20	88.430
817.10	89.050
817.00	89.852
816.90	90.190
816.80	90.779
816.70	90.381
816.60	89.493
816.50	88.315
816.40	87.104
816.30	87.460
816.20	87.048
816.10	87.545
816.00	87.888
815.90	87.937
815.80	88.393
815.70	88.775
815.60	88.851
815.50	88.794
815.40	88.717
815.30	88.158
815.20	87.864
815.10	87.206
815.00	87.195
814.90	87.607
814.80	88.184
814.70	89.307
814.60	90.003
814.50	90.594
814.40	90.574
814.30	90.707
814.20	89.510
814.10	88.571
814.00	88.112
813.90	87.600
813.80	87.817
813.70	88.163
813.60	89.164
813.50	89.457
813.40	89.681
813.30	89.691
813.20	89.262
813.10	88.852
813.00	88.725
812.90	89.309
812.80	89.288
812.70	89.104
812.60	89.304
812.50	88.707
812.40	88.897
812.30	88.629
812.20	88.326
812.10	88.428
812.00	88.564
811.90	89.591
811.80	90.272
811.70	89.829
811.60	89.408
811.50	88.561
811.40	87.698
811.30	87.105
811.20	87.333
811.10	87.387
811.00	88.351
810.90	88.857
810.80	89.363
810.70	88.978
810.60	88.150
810.50	87.754
810.40	88.250
810.30	88.768
810.20	89.753
810.10	90.145
810.00	90.148
809.90	89.355
809.80	88.584
809.70	88.447
809.60	88.227
809.50	87.965
809.40	89.245
809.30	90.054
809.20	90.553
809.10	90.069
809.00	89.305
808.90	88.474
808.80	87.585
808.70	87.809
808.60	88.783
808.50	89.282
808.40	89.371
808.30	90.023
808.20	89.941
808.10	89.434
808.00	89.548
807.90	89.587
807.80	89.934
807.70	90.081
807.60	90.187
807.50	90.249
807.40	89.373
807.30	89.149
807.20	89.158
807.10	89.959
807.00	90.304
806.90	89.938
806.80	89.898
806.70	89.446
806.60	89.176
806.50	88.799
806.40	88.486
806.30	88.870
806.20	89.152
806.10	89.753
806.00	90.131
805.90	90.100
805.80	89.885
805.70	89.998
805.60	90.147
805.50	89.857
805.40	90.164
805.30	89.549
805.20	89.127
805.10	89.123
805.00	88.703
804.90	88.930
804.80	88.886
804.70	88.718
804.60	88.729
804.50	89.071
804.40	89.844
804.30	89.406
804.20	89.158
804.10	89.031
804.00	89.319
803.90	89.458
803.80	89.339
803.70	89.649
803.60	89.740
803.50	90.061
803.40	90.310
803.30	90.114
803.20	89.623
803.10	89.194
803.00	89.330
802.90	88.603
802.80	88.569
802.70	88.928
802.60	89.009
802.50	89.626
802.40	89.908
802.30	90.341
802.20	91.076
802.10	91.453
802.00	91.170
801.90	90.744
801.80	90.370
801.70	90.042
801.60	89.749
801.50	88.907
801.40	88.767
801.30	89.418
801.20	89.723
801.10	90.052
801.00	89.996
800.90	89.812
800.80	89.905
800.70	90.059
800.60	89.699
800.50	88.941
800.40	88.224
800.30	88.407
800.20	88.804
800.10	88.967
800.00	89.204
799.90	89.585
799.80	90.401
799.70	90.435
799.60	90.211
799.50	90.163
799.40	89.942
799.30	90.328
799.20	90.365
799.10	90.416
799.00	90.473
798.90	90.611
798.80	90.423
798.70	90.814
798.60	90.772
798.50	90.339
798.40	90.448
798.30	90.000
798.20	89.769
798.10	89.931
798.00	89.912
797.90	89.680
797.80	89.124
797.70	88.860
797.60	89.310
797.50	89.386
797.40	88.842
797.30	89.047
797.20	89.054
797.10	89.284
797.00	89.324
796.90	89.145
796.80	89.356
796.70	89.784
796.60	90.192
796.50	90.181
796.40	90.032
796.30	89.515
796.20	89.602
796.10	89.448
796.00	89.226
795.90	89.268
795.80	89.104
795.70	89.578
795.60	90.014
795.50	90.350
795.40	90.542
795.30	90.657
795.20	90.111
795.10	90.108
795.00	90.121
794.90	89.986
794.80	90.215
794.70	90.725
794.60	90.898
794.50	90.859
794.40	90.223
794.30	89.634
794.20	89.097
794.10	88.627
794.00	88.563
793.90	89.225
793.80	90.093
793.70	90.659
793.60	90.692
793.50	90.459
793.40	89.799
793.30	89.549
793.20	89.290
793.10	89.034
793.00	88.852
792.90	89.409
792.80	89.735
792.70	89.761
792.60	89.941
792.50	89.765
792.40	90.628
792.30	90.715
792.20	90.312
792.10	90.500
792.00	90.208
791.90	90.286
791.80	90.284
791.70	90.172
791.60	89.940
791.50	90.149
791.40	90.068
791.30	89.984
791.20	90.258
791.10	90.161
791.00	90.619
790.90	90.780
790.80	90.440
790.70	90.459
790.60	90.439
790.50	90.675
790.40	90.336
790.30	90.513
790.20	90.473
790.10	90.450
790.00	90.208
789.90	90.036
789.80	89.730
789.70	89.576
789.60	89.438
789.50	89.653
789.40	89.921
789.30	90.316
789.20	90.197
789.10	90.357
789.00	90.219
788.90	90.609
788.80	90.507
788.70	90.401
788.60	90.329
788.50	90.351
788.40	90.632
788.30	90.832
788.20	90.689
788.10	90.843
788.00	91.074
787.90	91.291
787.80	90.879
787.70	90.432
787.60	90.086
787.50	90.148
787.40	90.164
787.30	90.544
787.20	90.219
787.10	90.398
787.00	90.402
786.90	90.637
786.80	90.340
786.70	90.133
786.60	89.605
786.50	89.367
786.40	89.253
786.30	89.416
786.20	89.994
786.10	90.263
786.00	90.775
785.90	91.332
785.80	91.074
785.70	91.173
785.60	90.460
785.50	90.427
785.40	90.594
785.30	90.735
785.20	90.593
785.10	90.702
785.00	90.439
784.90	89.920
784.80	89.966
784.70	89.407
784.60	89.471
784.50	89.652
784.40	90.243
784.30	90.844
784.20	91.029
784.10	91.264
784.00	91.463
783.90	91.334
783.80	91.215
783.70	91.215
783.60	91.736
783.50	91.946
783.40	91.755
783.30	91.081
783.20	90.708
783.10	90.315
783.00	90.023
782.90	89.835
782.80	89.957
782.70	90.256
782.60	90.368
782.50	90.683
782.40	90.524
782.30	90.166
782.20	90.230
782.10	90.601
782.00	90.653
781.90	90.648
781.80	90.703
781.70	91.000
781.60	90.727
781.50	90.676
781.40	90.333
781.30	90.232
781.20	89.783
781.10	89.772
781.00	89.478
780.90	89.415
780.80	89.859
780.70	89.966
780.60	90.243
780.50	90.563
780.40	90.384
780.30	90.561
780.20	89.999
780.10	90.077
780.00	89.741
779.90	89.909
779.80	89.800
779.70	89.987
779.60	90.076
779.50	89.787
779.40	90.385
779.30	90.185
779.20	90.476
779.10	90.654
779.00	90.573
778.90	90.701
778.80	90.218
778.70	89.818
778.60	89.460
778.50	89.664
778.40	89.847
778.30	90.213
778.20	90.551
778.10	90.590
778.00	90.961
777.90	90.675
777.80	90.637
777.70	90.822
777.60	90.728
777.50	90.721
777.40	90.670
777.30	90.715
777.20	90.353
777.10	90.104
777.00	90.184
776.90	90.251
776.80	90.290
776.70	90.481
776.60	90.934
776.50	91.059
776.40	90.841
776.30	91.274
776.20	91.618
776.10	91.470
776.00	91.301
775.90	91.314
775.80	90.954
775.70	90.565
775.60	90.572
775.50	90.894
775.40	91.183
775.30	91.569
775.20	91.764
775.10	91.844
775.00	91.191
774.90	90.869
774.80	90.806
774.70	90.662
774.60	90.959
774.50	91.342
774.40	91.703
774.30	91.643
774.20	91.504
774.10	91.190
774.00	90.930
773.90	90.997
773.80	90.909
773.70	90.713
773.60	90.635
773.50	90.474
773.40	90.371
773.30	90.479
773.20	91.031
773.10	91.087
773.00	91.682
772.90	91.876
772.80	91.830
772.70	91.248
772.60	90.830
772.50	90.570
772.40	90.766
772.30	90.735
772.20	91.368
772.10	91.501
772.00	91.469
771.90	91.443
771.80	91.489
771.70	91.300
771.60	91.384
771.50	91.584
771.40	91.384
771.30	91.225
771.20	91.114
771.10	90.692
771.00	90.307
770.90	90.075
770.80	90.470
770.70	90.849
770.60	91.312
770.50	91.723
770.40	91.769
770.30	91.711
770.20	91.323
770.10	90.822
770.00	90.351
769.90	90.077
769.80	90.215
769.70	90.334
769.60	90.451
769.50	90.452
769.40	90.258
769.30	90.247
769.20	90.376
769.10	90.222
769.00	90.363
768.90	90.416
768.80	90.647
768.70	90.488
768.60	90.544
768.50	90.443
768.40	90.830
768.30	90.786
768.20	91.113
768.10	91.309
768.00	91.048
767.90	90.913
767.80	90.992
767.70	90.597
767.60	90.337
767.50	89.953
767.40	89.817
767.30	89.868
767.20	90.000
767.10	89.786
767.00	89.959
766.90	90.123
766.80	90.288
766.70	90.409
766.60	90.488
766.50	90.543
766.40	90.931
766.30	90.783
766.20	90.840
766.10	90.813
766.00	90.825
765.90	90.939
765.80	90.916
765.70	90.686
765.60	90.496
765.50	90.654
765.40	90.263
765.30	90.342
765.20	90.395
765.10	90.311
765.00	90.467
764.90	90.682
764.80	90.675
764.70	91.037
764.60	91.488
764.50	91.698
764.40	91.539
764.30	91.551
764.20	91.521
764.10	91.349
764.00	90.650
763.90	90.489
763.80	90.843
763.70	90.713
763.60	90.815
763.50	91.132
763.40	90.654
763.30	90.720
763.20	90.719
763.10	90.754
763.00	90.469
762.90	90.614
762.80	90.983
762.70	91.275
762.60	91.529
762.50	91.568
762.40	91.696
762.30	91.265
762.20	91.313
762.10	91.395
762.00	91.118
761.90	90.894
761.80	90.924
761.70	91.012
761.60	90.931
761.50	90.825
761.40	90.863
761.30	90.730
761.20	90.859
761.10	90.636
761.00	90.633
760.90	90.300
760.80	90.371
760.70	90.425
760.60	90.676
760.50	90.827
760.40	90.944
760.30	90.837
760.20	91.031
760.10	91.233
760.00	91.280
759.90	91.201
759.80	91.488
759.70	91.288
759.60	91.271
759.50	90.916
759.40	90.989
759.30	90.901
759.20	90.898
759.10	91.418
759.00	91.665
758.90	91.466
758.80	91.482
758.70	91.448
758.60	91.234
758.50	90.910
758.40	90.831
758.30	91.035
758.20	91.307
758.10	91.158
758.00	91.071
757.90	91.062
757.80	90.697
757.70	90.656
757.60	90.737
757.50	91.025
757.40	91.365
757.30	91.607
757.20	91.575
757.10	91.202
757.00	90.859
756.90	90.586
756.80	90.643
756.70	90.633
756.60	90.774
756.50	91.016
756.40	91.102
756.30	91.110
756.20	90.907
756.10	91.180
756.00	91.458
755.90	91.515
755.80	91.551
755.70	91.356
755.60	91.290
755.50	90.853
755.40	90.609
755.30	90.442
755.20	90.601
755.10	90.835
755.00	91.266
754.90	91.435
754.80	91.236
754.70	91.023
754.60	91.057
754.50	90.887
754.40	90.888
754.30	90.835
754.20	91.117
754.10	91.356
754.00	91.625
753.90	91.501
753.80	91.212
753.70	90.699
753.60	90.711
753.50	90.941
753.40	91.064
753.30	90.901
753.20	91.101
753.10	91.192
753.00	90.828
752.90	90.415
752.80	90.261
752.70	90.244
752.60	90.327
752.50	90.472
752.40	90.634
752.30	90.526
752.20	90.608
752.10	90.800
752.00	91.062
751.90	91.229
751.80	91.710
751.70	92.047
751.60	91.704
751.50	91.329
751.40	91.131
751.30	91.073
751.20	91.044
751.10	91.173
751.00	91.411
750.90	91.632
750.80	91.649
750.70	91.659
750.60	91.686
750.50	91.508
750.40	91.461
750.30	91.576
750.20	91.748
750.10	91.674
750.00	91.573
749.90	91.323
749.80	90.991
749.70	90.825
749.60	90.782
749.50	90.847
749.40	90.919
749.30	91.256
749.20	91.482
749.10	91.591
749.00	91.609
748.90	91.252
748.80	91.165
748.70	91.085
748.60	91.161
748.50	91.366
748.40	91.654
748.30	92.051
748.20	92.359
748.10	92.341
748.00	92.253
747.90	92.101
747.80	91.742
747.70	91.604
747.60	91.593
747.50	91.638
747.40	91.897
747.30	92.113
747.20	92.145
747.10	92.251
747.00	91.945
746.90	91.960
746.80	92.094
746.70	92.342
746.60	92.522
746.50	92.797
746.40	92.923
746.30	93.038
746.20	92.702
746.10	92.356
746.00	92.056
745.90	91.999
745.80	92.093
745.70	92.639
745.60	92.716
745.50	92.988
745.40	93.003
745.30	92.938
745.20	92.862
745.10	92.793
745.00	92.841
744.90	92.985
744.80	93.151
744.70	93.232
744.60	93.222
744.50	93.178
744.40	93.207
744.30	93.262
744.20	93.216
744.10	93.352
744.00	93.216
743.90	93.143
743.80	93.202
743.70	93.045
743.60	93.148
743.50	92.920
743.40	92.959
743.30	92.834
743.20	92.856
743.10	92.875
743.00	93.067
742.90	93.311
742.80	93.600
742.70	93.799
742.60	93.602
742.50	93.291
742.40	93.066
742.30	92.749
742.20	93.067
742.10	93.305
742.00	93.580
741.90	93.629
741.80	93.622
741.70	93.566
741.60	93.241
741.50	92.940
741.40	93.051
741.30	93.129
741.20	93.373
741.10	93.390
741.00	93.352
740.90	92.993
740.80	92.971
740.70	92.852
740.60	92.924
740.50	92.939
740.40	92.897
740.30	92.644
740.20	92.296
740.10	92.003
740.00	91.976
739.90	91.902
739.80	91.981
739.70	92.022
739.60	92.101
739.50	92.184
739.40	92.110
739.30	91.964
739.20	91.999
739.10	92.127
739.00	92.247
738.90	92.166
738.80	92.137
738.70	91.906
738.60	91.916
738.50	91.809
738.40	91.680
738.30	91.549
738.20	91.417
738.10	91.319
738.00	91.128
737.90	91.245
737.80	91.425
737.70	91.654
737.60	91.867
737.50	92.032
737.40	92.212
737.30	92.013
737.20	91.880
737.10	91.610
737.00	91.576
736.90	91.623
736.80	91.684
736.70	91.571
736.60	91.256
736.50	91.390
736.40	91.216
736.30	91.351
736.20	91.462
736.10	91.749
736.00	92.259
735.90	92.401
735.80	92.353
735.70	92.045
735.60	91.774
735.50	91.641
735.40	91.728
735.30	91.582
735.20	91.516
735.10	91.790
735.00	91.770
734.90	91.866
734.80	91.845
734.70	91.806
734.60	91.953
734.50	92.043
734.40	92.013
734.30	91.753
734.20	91.274
734.10	91.301
734.00	91.365
733.90	91.378
733.80	91.518
733.70	91.721
733.60	91.878
733.50	91.776
733.40	91.798
733.30	91.568
733.20	91.334
733.10	91.441
733.00	91.634
732.90	91.612
732.80	91.436
732.70	91.362
732.60	91.273
732.50	91.183
732.40	90.894
732.30	90.850
732.20	90.937
732.10	90.949
732.00	91.154
731.90	91.297
731.80	91.242
731.70	91.308
731.60	91.315
731.50	91.362
731.40	91.583
731.30	91.618
731.20	91.973
731.10	92.001
731.00	91.722
730.90	91.758
730.80	91.733
730.70	91.738
730.60	91.802
730.50	92.153
730.40	92.384
730.30	92.463
730.20	92.234
730.10	91.934
730.00	91.568
729.90	91.295
729.80	91.497
729.70	91.723
729.60	91.813
729.50	91.981
729.40	92.036
729.30	91.939
729.20	91.779
729.10	92.008
729.00	92.265
728.90	92.478
728.80	92.505
728.70	92.427
728.60	92.288
728.50	91.940
728.40	91.723
728.30	91.585
728.20	91.775
728.10	91.825
728.00	92.000
727.90	91.912
727.80	91.870
727.70	91.835
727.60	91.690
727.50	91.607
727.40	91.475
727.30	91.299
727.20	91.332
727.10	91.257
727.00	91.082
726.90	91.115
726.80	91.169
726.70	91.270
726.60	91.217
726.50	91.253
726.40	91.296
726.30	91.319
726.20	91.368
726.10	91.289
726.00	91.333
725.90	91.306
725.80	91.522
725.70	91.763
725.60	91.691
725.50	91.887
725.40	91.740
725.30	91.633
725.20	91.460
725.10	91.569
725.00	91.595
724.90	91.664
724.80	91.810
724.70	91.756
724.60	91.656
724.50	91.472
724.40	91.383
724.30	91.432
724.20	91.530
724.10	91.889
724.00	92.120
723.90	92.127
723.80	92.073
723.70	91.960
723.60	91.704
723.50	91.506
723.40	91.419
723.30	91.375
723.20	91.631
723.10	91.865
723.00	91.953
722.90	91.980
722.80	91.879
722.70	91.865
722.60	91.633
722.50	91.657
722.40	91.759
722.30	92.037
722.20	92.337
722.10	92.445
722.00	92.389
721.90	92.020
721.80	91.924
721.70	91.696
721.60	91.355
721.50	91.234
721.40	91.207
721.30	91.070
721.20	90.985
721.10	91.264
721.00	91.343
720.90	91.547
720.80	91.868
720.70	92.149
720.60	92.154
720.50	91.936
720.40	91.706
720.30	91.731
720.20	91.646
720.10	91.845
720.00	91.945
719.90	91.984
719.80	91.954
719.70	91.931
719.60	91.835
719.50	91.620
719.40	91.509
719.30	91.574
719.20	91.516
719.10	91.643
719.00	91.625
718.90	91.907
718.80	91.927
718.70	91.907
718.60	91.760
718.50	91.788
718.40	91.637
718.30	91.490
718.20	91.446
718.10	91.393
718.00	91.513
717.90	91.717
717.80	91.631
717.70	91.705
717.60	91.543
717.50	91.660
717.40	91.613
717.30	91.508
717.20	91.566
717.10	91.494
717.00	91.595
716.90	91.688
716.80	91.754
716.70	91.658
716.60	91.532
716.50	91.518
716.40	91.414
716.30	91.477
716.20	91.371
716.10	91.446
716.00	91.577
715.90	91.682
715.80	91.893
715.70	91.925
715.60	92.099
715.50	91.857
715.40	91.764
715.30	91.740
715.20	91.680
715.10	91.683
715.00	91.706
714.90	91.750
714.80	91.745
714.70	91.660
714.60	91.590
714.50	91.462
714.40	91.568
714.30	91.787
714.20	92.065
714.10	92.063
714.00	91.895
713.90	91.806
713.80	91.627
713.70	91.538
713.60	91.573
713.50	91.620
713.40	91.746
713.30	91.887
713.20	91.958
713.10	91.797
713.00	91.786
712.90	91.787
712.80	91.609
712.70	91.532
712.60	91.424
712.50	91.410
712.40	91.424
712.30	91.400
712.20	91.463
712.10	91.405
712.00	91.424
711.90	91.349
711.80	91.592
711.70	91.730
711.60	91.801
711.50	91.937
711.40	91.959
711.30	91.848
711.20	91.839
711.10	91.753
711.00	91.861
710.90	91.888
710.80	92.030
710.70	92.106
710.60	92.101
710.50	91.780
710.40	91.754
710.30	91.707
710.20	91.519
710.10	91.413
710.00	91.339
709.90	91.062
709.80	91.076
709.70	90.971
709.60	91.011
709.50	90.993
709.40	91.309
709.30	91.590
709.20	91.861
709.10	92.059
709.00	92.197
708.90	92.025
708.80	91.910
708.70	91.834
708.60	91.764
708.50	91.501
708.40	91.387
708.30	91.435
708.20	91.431
708.10	91.279
708.00	91.470
707.90	91.424
707.80	91.552
707.70	91.778
707.60	91.981
707.50	91.786
707.40	91.588
707.30	91.332
707.20	91.275
707.10	91.154
707.00	91.063
706.90	91.299
706.80	91.595
706.70	91.610
706.60	91.751
706.50	91.592
706.40	91.507
706.30	91.330
706.20	91.379
706.10	91.355
706.00	91.587
705.90	91.707
705.80	91.794
705.70	91.730
705.60	91.660
705.50	91.719
705.40	91.778
705.30	91.655
705.20	91.672
705.10	91.545
705.00	91.629
704.90	91.723
704.80	91.905
704.70	91.876
704.60	91.980
704.50	92.021
704.40	92.010
704.30	91.786
704.20	91.501
704.10	91.507
704.00	91.559
703.90	91.701
703.80	91.887
703.70	91.922
703.60	91.933
703.50	91.926
703.40	91.836
703.30	91.663
703.20	91.494
703.10	91.546
703.00	91.786
702.90	91.940
702.80	92.020
702.70	92.036
702.60	92.156
702.50	92.163
702.40	91.993
702.30	91.927
702.20	91.838
702.10	91.858
702.00	91.789
701.90	91.716
701.80	91.633
701.70	91.660
701.60	91.803
701.50	91.851
701.40	91.907
701.30	91.850
701.20	91.878
701.10	91.870
701.00	91.779
700.90	91.839
700.80	91.635
700.70	91.552
700.60	91.595
700.50	91.617
700.40	91.670
700.30	91.661
700.20	91.775
700.10	91.674
700.00	91.611
699.90	91.692
699.80	91.573
699.70	91.388
699.60	91.311
699.50	91.538
699.40	91.431
699.30	91.378
699.20	91.379
699.10	91.417
699.00	91.406
698.90	91.539
698.80	91.711
698.70	91.635
698.60	91.584
698.50	91.692
698.40	91.834
698.30	91.669
698.20	91.598
698.10	91.768
698.00	91.820
697.90	91.933
697.80	92.048
697.70	91.971
697.60	91.722
697.50	91.604
697.40	91.574
697.30	91.479
697.20	91.423
697.10	91.502
697.00	91.729
696.90	91.752
696.80	91.709
696.70	91.870
696.60	91.859
696.50	91.848
696.40	92.050
696.30	92.051
696.20	91.952
696.10	91.932
696.00	91.796
695.90	91.800
695.80	91.706
695.70	91.831
695.60	91.876
695.50	92.044
695.40	91.981
695.30	92.075
695.20	91.845
695.10	91.831
695.00	91.900
694.90	91.819
694.80	91.601
694.70	91.628
694.60	91.428
694.50	91.529
694.40	91.596
694.30	91.581
694.20	91.567
694.10	91.664
694.00	91.749
693.90	91.762
693.80	91.511
693.70	91.604
693.60	91.727
693.50	91.815
693.40	91.648
693.30	91.673
693.20	91.531
693.10	91.577
693.00	91.679
692.90	91.613
692.80	91.673
692.70	91.619
692.60	91.576
692.50	91.482
692.40	91.307
692.30	91.353
692.20	91.510
692.10	91.735
692.00	91.785
691.90	91.992
691.80	91.976
691.70	91.783
691.60	91.663
691.50	91.476
691.40	91.463
691.30	91.525
691.20	91.648
691.10	91.714
691.00	91.770
690.90	91.655
690.80	91.461
690.70	91.320
690.60	91.180
690.50	91.259
690.40	91.491
690.30	91.504
690.20	91.637
690.10	91.797
690.00	91.940
689.90	92.107
689.80	92.268
689.70	92.250
689.60	92.159
689.50	92.086
689.40	91.887
689.30	91.659
689.20	91.629
689.10	91.682
689.00	91.864
688.90	91.916
688.80	91.888
688.70	91.978
688.60	91.944
688.50	91.963
688.40	91.921
688.30	91.833
688.20	91.629
688.10	91.643
688.00	91.730
687.90	91.671
687.80	91.635
687.70	91.671
687.60	91.606
687.50	91.494
687.40	91.304
687.30	91.453
687.20	91.603
687.10	91.874
687.00	91.996
686.90	92.083
686.80	92.024
686.70	91.858
686.60	91.785
686.50	91.699
686.40	91.709
686.30	91.849
686.20	91.933
686.10	91.968
686.00	91.841
685.90	91.826
685.80	91.774
685.70	91.789
685.60	91.769
685.50	91.766
685.40	91.793
685.30	91.833
685.20	91.866
685.10	91.855
685.00	91.852
684.90	91.872
684.80	91.798
684.70	91.834
684.60	91.866
684.50	91.822
684.40	91.725
684.30	91.730
684.20	91.820
684.10	91.961
684.00	92.012
683.90	91.979
683.80	91.802
683.70	91.675
683.60	91.596
683.50	91.583
683.40	91.744
683.30	91.876
683.20	92.089
683.10	92.216
683.00	92.232
682.90	92.146
682.80	91.779
682.70	91.634
682.60	91.625
682.50	91.675
682.40	91.744
682.30	91.702
682.20	91.597
682.10	91.476
682.00	91.708
681.90	91.690
681.80	91.807
681.70	91.956
681.60	92.057
681.50	92.157
681.40	92.049
681.30	91.828
681.20	91.646
681.10	91.601
681.00	91.654
680.90	91.725
680.80	91.711
680.70	91.628
680.60	91.795
680.50	91.681
680.40	91.666
680.30	91.707
680.20	91.694
680.10	91.694
680.00	91.605
679.90	91.550
679.80	91.478
679.70	91.525
679.60	91.635
679.50	91.736
679.40	91.676
679.30	91.628
679.20	91.704
679.10	91.597
679.00	91.688
678.90	91.711
678.80	91.641
678.70	91.631
678.60	91.493
678.50	91.544
678.40	91.559
678.30	91.495
678.20	91.488
678.10	91.492
678.00	91.429
677.90	91.620
677.80	91.695
677.70	91.640
677.60	91.729
677.50	91.895
677.40	91.831
677.30	91.651
677.20	91.491
677.10	91.398
677.00	91.441
676.90	91.532
676.80	91.558
676.70	91.457
676.60	91.327
676.50	91.386
676.40	91.446
676.30	91.535
676.20	91.656
676.10	91.773
676.00	91.805
675.90	91.676
675.80	91.565
675.70	91.393
675.60	91.283
675.50	91.247
675.40	91.255
675.30	91.309
675.20	91.425
675.10	91.391
675.00	91.296
674.90	91.312
674.80	91.427
674.70	91.500
674.60	91.654
674.50	91.790
674.40	91.847
674.30	91.808
674.20	91.706
674.10	91.643
674.00	91.379
673.90	91.244
673.80	91.222
673.70	91.262
673.60	91.237
673.50	91.290
673.40	91.301
673.30	91.289
673.20	91.363
673.10	91.389
673.00	91.463
672.90	91.463
672.80	91.510
672.70	91.586
672.60	91.489
672.50	91.387
672.40	91.247
672.30	91.331
672.20	91.390
672.10	91.427
672.00	91.551
671.90	91.635
671.80	91.654
671.70	91.653
671.60	91.640
671.50	91.624
671.40	91.739
671.30	91.674
671.20	91.749
671.10	91.852
671.00	91.882
670.90	91.895
670.80	91.813
670.70	91.587
670.60	91.621
670.50	91.658
670.40	91.635
670.30	91.650
670.20	91.595
670.10	91.655
670.00	91.737
669.90	91.633
669.80	91.611
669.70	91.718
669.60	91.708
669.50	91.632
669.40	91.668
669.30	91.507
669.20	91.467
669.10	91.507
669.00	91.700
668.90	91.808
668.80	91.877
668.70	91.970
668.60	91.978
668.50	91.892
668.40	91.900
668.30	91.904
668.20	91.706
668.10	91.361
668.00	91.336
667.90	91.435
667.80	91.552
667.70	91.773
667.60	92.067
667.50	92.119
667.40	92.065
667.30	91.893
667.20	91.719
667.10	91.614
667.00	91.714
666.90	91.732
666.80	91.743
666.70	91.642
666.60	91.732
666.50	91.792
666.40	91.666
666.30	91.753
666.20	91.861
666.10	91.852
666.00	91.667
665.90	91.508
665.80	91.418
665.70	91.546
665.60	91.697
665.50	91.830
665.40	91.814
665.30	91.797
665.20	91.843
665.10	91.724
665.00	91.532
664.90	91.395
664.80	91.409
664.70	91.458
664.60	91.423
664.50	91.486
664.40	91.474
664.30	91.541
664.20	91.506
664.10	91.548
664.00	91.526
663.90	91.512
663.80	91.494
663.70	91.499
663.60	91.647
663.50	91.650
663.40	91.622
663.30	91.681
663.20	91.691
663.10	91.778
663.00	91.715
662.90	91.572
662.80	91.505
662.70	91.391
662.60	91.453
662.50	91.483
662.40	91.616
662.30	91.670
662.20	91.764
662.10	91.814
662.00	91.701
661.90	91.751
661.80	91.678
661.70	91.645
661.60	91.662
661.50	91.619
661.40	91.659
661.30	91.581
661.20	91.516
661.10	91.510
661.00	91.548
660.90	91.590
660.80	91.656
660.70	91.690
660.60	91.650
660.50	91.683
660.40	91.622
660.30	91.542
660.20	91.483
660.10	91.509
660.00	91.532
659.90	91.636
659.80	91.780
659.70	91.952
659.60	91.933
659.50	91.940
659.40	91.992
659.30	92.077
659.20	92.012
659.10	91.897
659.00	91.699
658.90	91.559
658.80	91.450
658.70	91.362
658.60	91.234
658.50	91.311
658.40	91.482
658.30	91.695
658.20	91.662
658.10	91.635
658.00	91.558
657.90	91.608
657.80	91.601
657.70	91.622
657.60	91.645
657.50	91.689
657.40	91.761
657.30	91.825
657.20	91.742
657.10	91.666
657.00	91.689
656.90	91.658
656.80	91.584
656.70	91.656
656.60	91.661
656.50	91.684
656.40	91.746
656.30	91.707
656.20	91.807
656.10	91.775
656.00	91.652
655.90	91.574
655.80	91.491
655.70	91.451
655.60	91.613
655.50	91.631
655.40	91.719
655.30	91.892
655.20	91.964
655.10	91.951
655.00	91.915
654.90	91.692
654.80	91.617
654.70	91.642
654.60	91.696
654.50	91.694
654.40	91.628
654.30	91.744
654.20	91.659
654.10	91.513
654.00	91.366
653.90	91.331
653.80	91.381
653.70	91.467
653.60	91.640
653.50	91.566
653.40	91.524
653.30	91.591
653.20	91.461
653.10	91.310
653.00	91.201
652.90	91.275
652.80	91.349
652.70	91.369
652.60	91.397
652.50	91.445
652.40	91.481
652.30	91.632
652.20	91.756
652.10	91.643
652.00	91.693
651.90	91.674
651.80	91.571
651.70	91.372
651.60	91.379
651.50	91.496
651.40	91.815
651.30	91.917
651.20	92.053
651.10	92.013
651.00	91.885
650.90	91.795
650.80	91.624
650.70	91.572
650.60	91.661
650.50	91.842
650.40	92.073
650.30	92.038
650.20	91.874
650.10	91.816
650.00	91.778
649.90	91.709
649.80	91.660
649.70	91.666
649.60	91.831
649.50	91.893
649.40	91.935
649.30	91.993
649.20	91.923
649.10	91.887
649.00	91.770
648.90	91.646
648.80	91.536
648.70	91.515
648.60	91.577
648.50	91.560
648.40	91.550
648.30	91.504
648.20	91.633
648.10	91.520
648.00	91.390
647.90	91.393
647.80	91.509
647.70	91.623
647.60	91.765
647.50	91.810
647.40	91.864
647.30	91.895
647.20	91.849
647.10	91.616
647.00	91.408
646.90	91.131
646.80	91.153
646.70	91.195
646.60	91.199
646.50	91.293
646.40	91.509
646.30	91.591
646.20	91.615
646.10	91.598
646.00	91.542
645.90	91.482
645.80	91.457
645.70	91.511
645.60	91.630
645.50	91.571
645.40	91.537
645.30	91.609
645.20	91.599
645.10	91.542
645.00	91.559
644.90	91.500
644.80	91.421
644.70	91.545
644.60	91.637
644.50	91.716
644.40	91.734
644.30	91.658
644.20	91.648
644.10	91.550
644.00	91.478
643.90	91.525
643.80	91.659
643.70	91.798
643.60	91.937
643.50	91.982
643.40	91.865
643.30	91.761
643.20	91.577
643.10	91.377
643.00	91.278
642.90	91.281
642.80	91.243
642.70	91.354
642.60	91.452
642.50	91.492
642.40	91.658
642.30	91.605
642.20	91.589
642.10	91.572
642.00	91.468
641.90	91.482
641.80	91.519
641.70	91.437
641.60	91.509
641.50	91.533
641.40	91.412
641.30	91.498
641.20	91.467
641.10	91.479
641.00	91.517
640.90	91.409
640.80	91.270
640.70	91.194
640.60	91.210
640.50	91.367
640.40	91.574
640.30	91.688
640.20	91.792
640.10	91.847
640.00	91.817
639.90	91.771
639.80	91.548
639.70	91.443
639.60	91.400
639.50	91.561
639.40	91.588
639.30	91.604
639.20	91.642
639.10	91.563
639.00	91.581
638.90	91.614
638.80	91.611
638.70	91.618
638.60	91.701
638.50	91.755
638.40	91.760
638.30	91.750
638.20	91.686
638.10	91.632
638.00	91.559
637.90	91.576
637.80	91.713
637.70	91.730
637.60	91.731
637.50	91.665
637.40	91.568
637.30	91.561
637.20	91.526
637.10	91.447
637.00	91.501
636.90	91.591
636.80	91.711
636.70	91.677
636.60	91.612
636.50	91.588
636.40	91.563
636.30	91.573
636.20	91.631
636.10	91.616
636.00	91.553
635.90	91.694
635.80	91.722
635.70	91.651
635.60	91.643
635.50	91.528
635.40	91.524
635.30	91.438
635.20	91.391
635.10	91.434
635.00	91.434
634.90	91.537
634.80	91.580
634.70	91.553
634.60	91.463
634.50	91.443
634.40	91.464
634.30	91.444
634.20	91.407
634.10	91.420
634.00	91.444
633.90	91.405
633.80	91.444
633.70	91.554
633.60	91.654
633.50	91.644
633.40	91.604
633.30	91.623
633.20	91.503
633.10	91.444
633.00	91.486
632.90	91.543
632.80	91.615
632.70	91.806
632.60	91.864
632.50	91.870
632.40	91.795
632.30	91.577
632.20	91.465
632.10	91.189
632.00	91.138
631.90	91.244
631.80	91.342
631.70	91.458
631.60	91.593
631.50	91.584
631.40	91.472
631.30	91.429
631.20	91.303
631.10	91.312
631.00	91.388
630.90	91.479
630.80	91.604
630.70	91.625
630.60	91.692
630.50	91.602
630.40	91.549
630.30	91.319
630.20	91.343
630.10	91.419
630.00	91.391
629.90	91.480
629.80	91.543
629.70	91.541
629.60	91.478
629.50	91.456
629.40	91.325
629.30	91.310
629.20	91.288
629.10	91.294
629.00	91.336
628.90	91.335
628.80	91.346
628.70	91.401
628.60	91.370
628.50	91.372
628.40	91.380
628.30	91.340
628.20	91.354
628.10	91.452
628.00	91.416
627.90	91.579
627.80	91.573
627.70	91.521
627.60	91.414
627.50	91.445
627.40	91.418
627.30	91.419
627.20	91.323
627.10	91.309
627.00	91.212
626.90	91.121
626.80	91.107
626.70	91.098
626.60	91.127
626.50	91.256
626.40	91.361
626.30	91.518
626.20	91.586
626.10	91.544
626.00	91.514
625.90	91.541
625.80	91.420
625.70	91.349
625.60	91.227
625.50	91.348
625.40	91.396
625.30	91.443
625.20	91.540
625.10	91.493
625.00	91.440
624.90	91.490
624.80	91.674
624.70	91.691
624.60	91.699
624.50	91.782
624.40	91.791
624.30	91.664
624.20	91.500
624.10	91.514
624.00	91.398
623.90	91.462
623.80	91.587
623.70	91.575
623.60	91.470
623.50	91.260
623.40	91.367
623.30	91.409
623.20	91.423
623.10	91.580
623.00	91.729
622.90	91.831
622.80	91.741
622.70	91.664
622.60	91.427
622.50	91.318
622.40	91.362
622.30	91.438
622.20	91.428
622.10	91.483
622.00	91.659
621.90	91.707
621.80	91.617
621.70	91.545
621.60	91.518
621.50	91.585
621.40	91.450
621.30	91.537
621.20	91.513
621.10	91.492
621.00	91.584
620.90	91.628
620.80	91.488
620.70	91.333
620.60	91.313
620.50	91.213
620.40	91.197
620.30	91.212
620.20	91.241
620.10	91.270
620.00	91.319
619.90	91.520
619.80	91.557
619.70	91.489
619.60	91.460
619.50	91.446
619.40	91.475
619.30	91.369
619.20	91.354
619.10	91.245
619.00	91.165
618.90	91.167
618.80	91.283
618.70	91.255
618.60	91.372
618.50	91.487
618.40	91.611
618.30	91.758
618.20	91.781
618.10	91.700
618.00	91.736
617.90	91.721
617.80	91.662
617.70	91.592
617.60	91.457
617.50	91.366
617.40	91.467
617.30	91.535
617.20	91.610
617.10	91.592
617.00	91.620
616.90	91.656
616.80	91.600
616.70	91.501
616.60	91.450
616.50	91.482
616.40	91.387
616.30	91.216
616.20	91.001
616.10	90.942
616.00	91.013
615.90	91.038
615.80	91.000
615.70	91.161
615.60	91.207
615.50	91.301
615.40	91.298
615.30	91.385
615.20	91.372
615.10	91.405
615.00	91.469
614.90	91.402
614.80	91.356
614.70	91.356
614.60	91.439
614.50	91.438
614.40	91.297
614.30	91.291
614.20	91.137
614.10	91.130
614.00	91.160
613.90	91.214
613.80	91.379
613.70	91.425
613.60	91.407
613.50	91.326
613.40	91.276
613.30	91.219
613.20	91.227
613.10	91.428
613.00	91.496
612.90	91.569
612.80	91.555
612.70	91.577
612.60	91.609
612.50	91.486
612.40	91.552
612.30	91.526
612.20	91.495
612.10	91.603
612.00	91.519
611.90	91.389
611.80	91.261
611.70	91.285
611.60	91.194
611.50	91.241
611.40	91.259
611.30	91.330
611.20	91.356
611.10	91.409
611.00	91.526
610.90	91.457
610.80	91.430
610.70	91.428
610.60	91.337
610.50	91.266
610.40	91.167
610.30	91.222
610.20	91.152
610.10	91.242
610.00	91.365
609.90	91.475
609.80	91.540
609.70	91.513
609.60	91.466
609.50	91.387
609.40	91.415
609.30	91.314
609.20	91.319
609.10	91.385
609.00	91.407
608.90	91.567
608.80	91.593
608.70	91.615
608.60	91.618
608.50	91.537
608.40	91.615
608.30	91.593
608.20	91.520
608.10	91.537
608.00	91.595
607.90	91.480
607.80	91.514
607.70	91.484
607.60	91.447
607.50	91.490
607.40	91.488
607.30	91.476
607.20	91.473
607.10	91.321
607.00	91.296
606.90	91.308
606.80	91.255
606.70	91.270
606.60	91.277
606.50	91.259
606.40	91.318
606.30	91.337
606.20	91.394
606.10	91.345
606.00	91.287
605.90	91.353
605.80	91.399
605.70	91.415
605.60	91.293
605.50	91.304
605.40	91.279
605.30	91.307
605.20	91.335
605.10	91.321
605.00	91.341
604.90	91.336
604.80	91.394
604.70	91.315
604.60	91.257
604.50	91.400
604.40	91.544
604.30	91.722
604.20	91.676
604.10	91.540
604.00	91.329
603.90	91.183
603.80	91.136
603.70	91.138
603.60	91.254
603.50	91.349
603.40	91.450
603.30	91.448
603.20	91.347
603.10	91.363
603.00	91.367
602.90	91.409
602.80	91.506
602.70	91.525
602.60	91.414
602.50	91.258
602.40	91.136
602.30	91.125
602.20	91.132
602.10	91.166
602.00	91.271
601.90	91.293
601.80	91.331
601.70	91.304
601.60	91.285
601.50	91.239
601.40	91.277
601.30	91.435
601.20	91.374
601.10	91.235
601.00	91.170
600.90	91.209
600.80	91.292
600.70	91.337
600.60	91.431
600.50	91.398
600.40	91.244
600.30	91.122
600.20	90.985
600.10	90.795
600.00	90.802
599.90	91.241
599.80	91.446
599.70	91.381
599.60	91.444
599.50	91.241
599.40	91.275
599.30	91.204
599.20	91.200
599.10	91.092
599.00	90.934
598.90	91.057
598.80	91.159
598.70	91.111
598.60	91.012
598.50	91.229
598.40	91.345
598.30	91.361
598.20	91.358
598.10	90.990
598.00	90.926
597.90	90.871
597.80	90.965
597.70	90.977
597.60	90.956
597.50	90.985
597.40	91.183
597.30	91.286
597.20	91.139
597.10	90.937
597.00	90.810
596.90	90.780
596.80	90.888
596.70	90.750
596.60	90.716
596.50	90.783
596.40	90.878
596.30	90.998
596.20	91.034
596.10	90.951
596.00	90.985
595.90	91.183
595.80	91.254
595.70	91.190
595.60	91.134
595.50	91.072
595.40	91.214
595.30	91.025
595.20	90.880
595.10	90.888
595.00	90.866
594.90	90.845
594.80	90.902
594.70	90.887
594.60	90.866
594.50	91.037
594.40	91.172
594.30	91.235
594.20	91.168
594.10	91.161
594.00	91.062
593.90	90.968
593.80	90.947
593.70	90.921
593.60	90.962
593.50	91.005
593.40	90.992
593.30	90.857
593.20	90.688
593.10	90.743
593.00	90.847
592.90	91.092
592.80	91.260
592.70	91.518
592.60	91.548
592.50	91.519
592.40	91.448
592.30	91.309
592.20	91.158
592.10	91.217
592.00	91.295
591.90	91.360
591.80	91.347
591.70	91.294
591.60	91.105
591.50	90.996
591.40	90.867
591.30	90.805
591.20	90.859
591.10	90.910
591.00	91.094
590.90	91.124
590.80	91.118
590.70	91.093
590.60	91.086
590.50	91.043
590.40	91.083
590.30	91.131
590.20	91.048
590.10	91.046
590.00	91.134
589.90	91.195
589.80	91.308
589.70	91.387
589.60	91.390
589.50	91.325
589.40	91.277
589.30	91.186
589.20	91.134
589.10	91.196
589.00	91.145
588.90	91.291
588.80	91.375
588.70	91.422
588.60	91.364
588.50	91.284
588.40	91.209
588.30	91.149
588.20	91.063
588.10	91.086
588.00	91.147
587.90	91.218
587.80	91.294
587.70	91.494
587.60	91.374
587.50	91.260
587.40	91.074
587.30	91.144
587.20	91.254
587.10	91.290
587.00	91.418
586.90	91.425
586.80	91.535
586.70	91.533
586.60	91.538
586.50	91.414
586.40	91.454
586.30	91.655
586.20	91.745
586.10	91.809
586.00	91.668
585.90	91.515
585.80	91.461
585.70	91.256
585.60	91.196
585.50	91.179
585.40	91.216
585.30	91.304
585.20	91.456
585.10	91.385
585.00	91.351
584.90	91.471
584.80	91.480
584.70	91.548
584.60	91.588
584.50	91.543
584.40	91.492
584.30	91.512
584.20	91.542
584.10	91.677
584.00	91.712
583.90	91.842
583.80	91.956
583.70	91.805
583.60	91.556
583.50	91.399
583.40	91.327
583.30	91.262
583.20	91.217
583.10	91.316
583.00	91.360
582.90	91.460
582.80	91.437
582.70	91.413
582.60	91.217
582.50	91.255
582.40	91.411
582.30	91.383
582.20	91.306
582.10	91.197
582.00	91.325
581.90	91.321
581.80	91.310
581.70	91.255
581.60	91.170
581.50	91.137
581.40	91.097
581.30	91.095
581.20	90.974
581.10	90.969
581.00	91.003
580.90	91.029
580.80	91.011
580.70	90.826
580.60	90.794
580.50	90.703
580.40	90.554
580.30	90.546
580.20	90.509
580.10	90.445
580.00	90.525
579.90	90.644
579.80	90.742
579.70	90.857
579.60	90.762
579.50	90.819
579.40	90.867
579.30	90.749
579.20	90.691
579.10	90.730
579.00	90.701
578.90	90.840
578.80	90.826
578.70	90.736
578.60	90.814
578.50	90.820
578.40	90.790
578.30	90.782
578.20	90.677
578.10	90.664
578.00	90.766
577.90	90.786
577.80	90.797
577.70	90.808
577.60	90.831
577.50	90.982
577.40	90.955
577.30	90.950
577.20	91.055
577.10	91.083
577.00	91.005
576.90	90.912
576.80	90.820
576.70	90.670
576.60	90.648
576.50	90.698
576.40	90.692
576.30	90.758
576.20	90.792
576.10	90.928
576.00	90.950
575.90	90.938
575.80	90.888
575.70	90.896
575.60	90.798
575.50	90.632
575.40	90.522
575.30	90.365
575.20	90.374
575.10	90.578
575.00	90.723
574.90	90.800
574.80	90.772
574.70	90.836
574.60	90.803
574.50	90.753
574.40	90.641
574.30	90.712
574.20	90.723
574.10	90.627
574.00	90.621
573.90	90.599
573.80	90.615
573.70	90.681
573.60	90.846
573.50	90.863
573.40	90.733
573.30	90.698
573.20	90.694
573.10	90.628
573.00	90.607
572.90	90.635
572.80	90.563
572.70	90.428
572.60	90.461
572.50	90.613
572.40	90.593
572.30	90.593
572.20	90.700
572.10	90.776
572.00	90.760
571.90	90.705
571.80	90.655
571.70	90.586
571.60	90.683
571.50	90.685
571.40	90.558
571.30	90.437
571.20	90.499
571.10	90.814
571.00	90.914
570.90	90.979
570.80	91.007
570.70	90.954
570.60	90.850
570.50	90.772
570.40	90.622
570.30	90.480
570.20	90.528
570.10	90.598
570.00	90.621
569.90	90.605
569.80	90.512
569.70	90.545
569.60	90.515
569.50	90.534
569.40	90.592
569.30	90.677
569.20	90.830
569.10	90.914
569.00	90.968
568.90	90.869
568.80	90.753
568.70	90.593
568.60	90.427
568.50	90.496
568.40	90.541
568.30	90.683
568.20	90.707
568.10	90.687
568.00	90.618
567.90	90.464
567.80	90.460
567.70	90.334
567.60	90.321
567.50	90.409
567.40	90.512
567.30	90.611
567.20	90.504
567.10	90.463
567.00	90.494
566.90	90.690
566.80	90.643
566.70	90.552
566.60	90.481
566.50	90.349
566.40	90.354
566.30	90.247
566.20	90.172
566.10	90.235
566.00	90.402
565.90	90.621
565.80	90.691
565.70	90.529
565.60	90.524
565.50	90.569
565.40	90.530
565.30	90.409
565.20	90.369
565.10	90.204
565.00	90.346
564.90	90.482
564.80	90.449
564.70	90.391
564.60	90.480
564.50	90.577
564.40	90.570
564.30	90.420
564.20	90.444
564.10	90.301
564.00	90.283
563.90	90.375
563.80	90.530
563.70	90.474
563.60	90.453
563.50	90.572
563.40	90.506
563.30	90.345
563.20	90.166
563.10	90.127
563.00	90.076
562.90	90.114
562.80	90.228
562.70	90.257
562.60	90.219
562.50	90.307
562.40	90.381
562.30	90.406
562.20	90.308
562.10	90.326
562.00	90.308
561.90	90.270
561.80	90.243
561.70	90.337
561.60	90.376
561.50	90.482
561.40	90.534
561.30	90.594
561.20	90.643
561.10	90.631
561.00	90.594
560.90	90.491
560.80	90.542
560.70	90.545
560.60	90.494
560.50	90.434
560.40	90.392
560.30	90.369
560.20	90.314
560.10	90.208
560.00	90.086
559.90	89.980
559.80	90.134
559.70	90.333
559.60	90.451
559.50	90.510
559.40	90.630
559.30	90.607
559.20	90.470
559.10	90.268
559.00	90.115
558.90	90.061
558.80	90.065
558.70	90.087
558.60	90.181
558.50	90.263
558.40	90.287
558.30	90.422
558.20	90.399
558.10	90.371
558.00	90.304
557.90	90.170
557.80	90.121
557.70	90.080
557.60	90.147
557.50	90.140
557.40	90.130
557.30	90.130
557.20	90.243
557.10	90.357
557.00	90.256
556.90	90.297
556.80	90.226
556.70	90.187
556.60	90.174
556.50	90.097
556.40	90.095
556.30	90.163
556.20	90.208
556.10	90.094
556.00	89.968
555.90	89.877
555.80	89.902
555.70	90.016
555.60	90.157
555.50	90.300
555.40	90.279
555.30	90.180
555.20	90.139
555.10	90.045
555.00	89.992
554.90	90.018
554.80	90.090
554.70	90.135
554.60	90.199
554.50	90.232
554.40	90.172
554.30	90.192
554.20	90.335
554.10	90.340
554.00	90.242
553.90	90.091
553.80	90.092
553.70	90.142
553.60	90.178
553.50	90.170
553.40	90.266
553.30	90.282
553.20	90.267
553.10	90.267
553.00	90.170
552.90	90.141
552.80	90.157
552.70	90.063
552.60	90.071
552.50	90.094
552.40	90.083
552.30	90.167
552.20	90.218
552.10	90.238
552.00	90.323
551.90	90.386
551.80	90.293
551.70	90.230
551.60	90.139
551.50	90.070
551.40	90.117
551.30	90.046
551.20	90.129
551.10	90.267
551.00	90.343
550.90	90.347
550.80	90.163
550.70	89.996
550.60	89.872
550.50	89.911
550.40	89.895
550.30	89.929
550.20	89.991
550.10	90.092
550.00	90.214
549.90	90.195
549.80	90.131
549.70	90.085
549.60	90.057
549.50	90.020
549.40	89.891
549.30	89.837
549.20	89.759
549.10	89.896
549.00	89.994
548.90	90.034
548.80	90.079
548.70	90.161
548.60	90.157
548.50	90.186
548.40	90.152
548.30	90.208
548.20	90.177
548.10	90.160
548.00	90.175
547.90	90.174
547.80	90.131
547.70	90.092
547.60	89.975
547.50	89.886
547.40	89.802
547.30	89.793
547.20	89.837
547.10	89.951
547.00	89.992
546.90	90.033
546.80	90.080
546.70	90.051
546.60	90.057
546.50	89.984
546.40	89.993
546.30	89.995
546.20	90.012
546.10	90.077
546.00	90.094
545.90	90.100
545.80	90.132
545.70	90.245
545.60	90.335
545.50	90.278
545.40	90.248
545.30	90.138
545.20	90.098
545.10	89.973
545.00	89.943
544.90	89.959
544.80	89.954
544.70	89.946
544.60	89.908
544.50	89.991
544.40	89.994
544.30	89.988
544.20	89.973
544.10	89.955
544.00	89.848
543.90	89.713
543.80	89.714
543.70	89.648
543.60	89.604
543.50	89.684
543.40	89.780
543.30	89.877
543.20	89.868
543.10	89.937
543.00	90.017
542.90	90.020
542.80	90.038
542.70	90.072
542.60	90.021
542.50	89.922
542.40	89.855
542.30	89.822
542.20	89.775
542.10	89.818
542.00	89.850
541.90	89.877
541.80	89.881
541.70	89.787
541.60	89.824
541.50	89.842
541.40	89.831
541.30	89.837
541.20	89.863
541.10	89.985
541.00	89.991
540.90	89.990
540.80	89.871
540.70	89.839
540.60	89.897
540.50	89.902
540.40	89.987
540.30	89.946
540.20	89.986
540.10	90.109
540.00	90.079
539.90	90.043
539.80	90.064
539.70	90.153
539.60	90.186
539.50	90.216
539.40	90.104
539.30	90.042
539.20	89.971
539.10	89.880
539.00	89.850
538.90	89.770
538.80	89.875
538.70	89.894
538.60	89.913
538.50	89.817
538.40	89.790
538.30	89.810
538.20	89.855
538.10	89.966
538.00	90.008
537.90	90.090
537.80	90.116
537.70	90.147
537.60	90.063
537.50	89.908
537.40	89.916
537.30	89.801
537.20	89.804
537.10	89.838
537.00	89.864
536.90	89.980
536.80	89.991
536.70	90.086
536.60	90.031
536.50	89.915
536.40	89.901
536.30	89.960
536.20	89.906
536.10	89.867
536.00	89.888
535.90	89.947
535.80	89.987
535.70	90.000
535.60	89.987
535.50	90.078
535.40	90.103
535.30	90.232
535.20	90.248
535.10	90.115
535.00	89.943
534.90	89.935
534.80	89.893
534.70	89.908
534.60	89.873
534.50	89.917
534.40	89.982
534.30	90.066
534.20	90.117
534.10	90.108
534.00	89.930
533.90	89.944
533.80	89.988
533.70	89.984
533.60	89.938
533.50	89.941
533.40	90.017
533.30	90.171
533.20	90.201
533.10	90.143
533.00	90.013
532.90	89.854
532.80	89.736
532.70	89.759
532.60	89.714
532.50	89.815
532.40	89.917
532.30	90.045
532.20	90.102
532.10	90.020
532.00	89.977
531.90	89.889
531.80	89.840
531.70	89.819
531.60	89.902
531.50	89.902
531.40	89.967
531.30	90.077
531.20	90.149
531.10	90.142
531.00	89.967
530.90	89.895
530.80	89.827
530.70	89.680
530.60	89.673
530.50	89.668
530.40	89.822
530.30	89.958
530.20	90.089
530.10	90.085
530.00	90.100
529.90	90.033
529.80	90.005
529.70	89.984
529.60	89.867
529.50	89.929
529.40	90.037
529.30	90.090
529.20	90.139
529.10	90.129
529.00	90.056
528.90	89.978
528.80	89.901
528.70	89.867
528.60	89.887
528.50	90.002
528.40	90.162
528.30	90.268
528.20	90.248
528.10	90.232
528.00	90.198
527.90	90.164
527.80	90.142
527.70	90.153
527.60	90.106
527.50	90.068
527.40	90.075
527.30	90.136
527.20	90.126
527.10	90.189
527.00	90.158
526.90	90.113
526.80	90.057
526.70	89.910
526.60	89.827
526.50	89.833
526.40	89.884
526.30	90.082
526.20	90.220
526.10	90.234
526.00	90.260
525.90	90.207
525.80	90.189
525.70	90.202
525.60	90.175
525.50	90.191
525.40	90.231
525.30	90.140
525.20	90.165
525.10	90.118
525.00	90.101
524.90	90.152
524.80	90.158
524.70	90.198
524.60	90.268
524.50	90.218
524.40	90.263
524.30	90.169
524.20	90.049
524.10	90.055
524.00	90.063
523.90	90.008
523.80	90.042
523.70	90.009
523.60	90.006
523.50	89.984
523.40	89.938
523.30	90.016
523.20	90.065
523.10	90.091
523.00	90.212
522.90	90.307
522.80	90.267
522.70	90.328
522.60	90.328
522.50	90.309
522.40	90.306
522.30	90.386
522.20	90.415
522.10	90.436
522.00	90.370
521.90	90.429
521.80	90.407
521.70	90.364
521.60	90.304
521.50	90.321
521.40	90.303
521.30	90.354
521.20	90.390
521.10	90.431
521.00	90.417
520.90	90.554
520.80	90.610
520.70	90.570
520.60	90.463
520.50	90.416
520.40	90.348
520.30	90.300
520.20	90.262
520.10	90.239
520.00	90.311
519.90	90.394
519.80	90.414
519.70	90.498
519.60	90.521
519.50	90.685
519.40	90.770
519.30	90.789
519.20	90.674
519.10	90.540
519.00	90.420
518.90	90.368
518.80	90.351
518.70	90.394
518.60	90.507
518.50	90.594
518.40	90.616
518.30	90.607
518.20	90.581
518.10	90.583
518.00	90.607
517.90	90.648
517.80	90.674
517.70	90.699
517.60	90.639
517.50	90.599
517.40	90.503
517.30	90.484
517.20	90.407
517.10	90.451
517.00	90.511
516.90	90.577
516.80	90.609
516.70	90.617
516.60	90.626
516.50	90.604
516.40	90.630
516.30	90.660
516.20	90.609
516.10	90.646
516.00	90.673
515.90	90.696
515.80	90.606
515.70	90.622
515.60	90.590
515.50	90.613
515.40	90.591
515.30	90.564
515.20	90.541
515.10	90.500
515.00	90.489
514.90	90.452
514.80	90.458
514.70	90.443
514.60	90.470
514.50	90.491
514.40	90.507
514.30	90.558
514.20	90.595
514.10	90.616
514.00	90.607
513.90	90.562
513.80	90.595
513.70	90.589
513.60	90.599
513.50	90.558
513.40	90.582
513.30	90.546
513.20	90.638
513.10	90.655
513.00	90.643
512.90	90.638
512.80	90.652
512.70	90.592
512.60	90.596
512.50	90.552
512.40	90.562
512.30	90.555
512.20	90.610
512.10	90.615
512.00	90.587
511.90	90.516
511.80	90.555
511.70	90.537
511.60	90.514
511.50	90.523
511.40	90.481
511.30	90.429
511.20	90.454
511.10	90.467
511.00	90.424
510.90	90.435
510.80	90.452
510.70	90.426
510.60	90.433
510.50	90.381
510.40	90.371
510.30	90.392
510.20	90.466
510.10	90.539
510.00	90.490
509.90	90.427
509.80	90.430
509.70	90.440
509.60	90.416
509.50	90.420
509.40	90.405
509.30	90.397
509.20	90.353
509.10	90.258
509.00	90.133
508.90	90.074
508.80	90.072
508.70	90.191
508.60	90.265
508.50	90.362
508.40	90.474
508.30	90.532
508.20	90.554
508.10	90.499
508.00	90.478
507.90	90.487
507.80	90.422
507.70	90.373
507.60	90.259
507.50	90.205
507.40	90.250
507.30	90.393
507.20	90.389
507.10	90.438
507.00	90.439
506.90	90.453
506.80	90.391
506.70	90.283
506.60	90.174
506.50	90.124
506.40	90.205
506.30	90.247
506.20	90.225
506.10	90.113
506.00	90.146
505.90	90.138
505.80	90.096
505.70	90.069
505.60	90.030
505.50	90.030
505.40	90.074
505.30	90.043
505.20	89.997
505.10	89.951
505.00	89.952
504.90	89.940
504.80	89.992
504.70	90.028
504.60	90.090
504.50	90.140
504.40	90.142
504.30	90.096
504.20	90.077
504.10	89.985
504.00	89.968
503.90	89.924
503.80	89.917
503.70	89.991
503.60	90.006
503.50	90.108
503.40	90.248
503.30	90.255
503.20	90.151
503.10	90.113
503.00	90.013
502.90	89.915
502.80	89.863
502.70	89.829
502.60	89.862
502.50	89.908
502.40	89.948
502.30	90.053
502.20	90.047
502.10	90.057
502.00	90.122
501.90	90.148
501.80	90.067
501.70	90.050
501.60	90.045
501.50	90.073
501.40	90.016
501.30	90.001
501.20	89.956
501.10	89.842
501.00	89.764
500.90	89.775
500.80	89.837
500.70	89.929
500.60	90.033
500.50	90.194
500.40	90.150
500.30	90.047
500.20	89.903
500.10	89.803
500.00	89.729
499.90	89.786
499.80	89.908
499.70	89.997
499.60	90.054
499.50	89.995
499.40	89.909
499.30	89.863
499.20	89.683
499.10	89.727
499.00	89.799
498.90	89.894
498.80	90.009
498.70	90.045
498.60	90.047
498.50	89.955
498.40	89.967
498.30	90.003
498.20	90.028
498.10	90.031
498.00	90.001
497.90	90.080
497.80	90.003
497.70	89.969
497.60	89.850
497.50	89.822
497.40	89.859
497.30	89.945
497.20	90.088
497.10	90.122
497.00	90.129
496.90	90.215
496.80	90.195
496.70	90.143
496.60	89.991
496.50	89.851
496.40	89.848
496.30	89.858
496.20	89.860
496.10	89.903
496.00	89.915
495.90	89.899
495.80	89.903
495.70	89.856
495.60	89.725
495.50	89.650
495.40	89.582
495.30	89.578
495.20	89.559
495.10	89.611
495.00	89.671
494.90	89.684
494.80	89.747
494.70	89.730
494.60	89.798
494.50	89.761
494.40	89.765
494.30	89.815
494.20	89.919
494.10	90.003
494.00	90.049
493.90	90.023
493.80	89.948
493.70	89.880
493.60	89.860
493.50	89.928
493.40	89.980
493.30	90.016
493.20	90.104
493.10	90.026
493.00	89.903
492.90	89.773
492.80	89.712
492.70	89.630
492.60	89.658
492.50	89.680
492.40	89.815
492.30	89.828
492.20	89.811
492.10	89.805
492.00	89.757
491.90	89.783
491.80	89.824
491.70	89.866
491.60	89.918
491.50	89.946
491.40	90.007
491.30	89.888
491.20	89.876
491.10	89.815
491.00	89.854
490.90	89.920
490.80	89.931
490.70	89.921
490.60	89.933
490.50	89.954
490.40	89.933
490.30	89.932
490.20	89.936
490.10	89.979
490.00	89.986
489.90	89.895
489.80	89.788
489.70	89.762
489.60	89.737
489.50	89.810
489.40	89.901
489.30	89.959
489.20	90.061
489.10	90.090
489.00	90.112
488.90	90.111
488.80	90.057
488.70	89.996
488.60	89.859
488.50	89.871
488.40	89.812
488.30	89.883
488.20	89.954
488.10	90.023
488.00	90.069
487.90	90.067
487.80	90.074
487.70	89.890
487.60	89.798
487.50	89.760
487.40	89.800
487.30	89.831
487.20	89.840
487.10	89.883
487.00	89.962
486.90	90.028
486.80	90.061
486.70	89.999
486.60	89.940
486.50	89.807
486.40	89.853
486.30	89.797
486.20	89.803
486.10	89.819
486.00	89.843
485.90	89.849
485.80	89.865
485.70	89.782
485.60	89.711
485.50	89.769
485.40	89.907
485.30	89.971
485.20	90.072
485.10	90.071
485.00	90.081
484.90	90.138
484.80	90.164
484.70	90.193
484.60	90.174
484.50	90.167
484.40	90.059
484.30	89.981
484.20	89.821
484.10	89.775
484.00	89.836
483.90	89.905
483.80	90.029
483.70	90.132
483.60	90.078
483.50	89.983
483.40	89.901
483.30	89.830
483.20	89.855
483.10	89.964
483.00	90.094
482.90	90.199
482.80	90.138
482.70	90.079
482.60	89.895
482.50	89.795
482.40	89.784
482.30	89.801
482.20	89.889
482.10	89.956
482.00	89.988
481.90	89.929
481.80	89.869
481.70	89.735
481.60	89.751
481.50	89.767
481.40	89.874
481.30	89.967
481.20	89.943
481.10	89.989
481.00	89.968
480.90	89.888
480.80	89.835
480.70	89.792
480.60	89.723
480.50	89.768
480.40	89.739
480.30	89.775
480.20	89.753
480.10	89.684
480.00	89.795
479.90	89.770
479.80	89.760
479.70	89.844
479.60	89.829
479.50	89.784
479.40	89.747
479.30	89.791
479.20	89.783
479.10	89.815
479.00	89.809
478.90	89.821
478.80	89.735
478.70	89.690
478.60	89.613
478.50	89.415
478.40	89.342
478.30	89.373
478.20	89.465
478.10	89.538
478.00	89.521
477.90	89.567
477.80	89.512
477.70	89.448
477.60	89.432
477.50	89.373
477.40	89.284
477.30	89.369
477.20	89.465
477.10	89.549
477.00	89.619
476.90	89.546
476.80	89.535
476.70	89.532
476.60	89.560
476.50	89.523
476.40	89.447
476.30	89.467
476.20	89.476
476.10	89.471
476.00	89.314
475.90	89.286
475.80	89.249
475.70	89.283
475.60	89.330
475.50	89.410
475.40	89.518
475.30	89.525
475.20	89.594
475.10	89.583
475.00	89.536
474.90	89.475
474.80	89.436
474.70	89.404
474.60	89.385
474.50	89.492
474.40	89.526
474.30	89.548
474.20	89.444
474.10	89.402
474.00	89.394
473.90	89.256
473.80	89.229
473.70	89.227
473.60	89.292
473.50	89.347
473.40	89.395
473.30	89.385
473.20	89.351
473.10	89.337
473.00	89.289
472.90	89.245
472.80	89.302
472.70	89.352
472.60	89.427
472.50	89.466
472.40	89.509
472.30	89.451
472.20	89.422
472.10	89.311
472.00	89.340
471.90	89.320
471.80	89.226
471.70	89.237
471.60	89.248
471.50	89.306
471.40	89.389
471.30	89.477
471.20	89.460
471.10	89.455
471.00	89.428
470.90	89.331
470.80	89.249
470.70	89.081
470.60	89.149
470.50	89.191
470.40	89.194
470.30	89.243
470.20	89.220
470.10	89.264
470.00	89.244
469.90	89.277
469.80	89.249
469.70	89.317
469.60	89.352
469.50	89.420
469.40	89.430
469.30	89.360
469.20	89.353
469.10	89.297
469.00	89.202
468.90	89.133
468.80	89.130
468.70	89.186
468.60	89.279
468.50	89.285
468.40	89.264
468.30	89.242
468.20	89.174
468.10	89.194
468.00	89.186
467.90	89.146
467.80	89.212
467.70	89.384
467.60	89.421
467.50	89.332
467.40	89.176
467.30	89.023
467.20	88.996
467.10	89.021
467.00	89.045
466.90	89.078
466.80	89.094
466.70	89.149
466.60	89.160
466.50	89.118
466.40	89.092
466.30	89.156
466.20	89.268
466.10	89.264
466.00	89.198
465.90	89.068
465.80	88.972
465.70	89.005
465.60	88.990
465.50	89.026
465.40	89.100
465.30	89.134
465.20	89.192
465.10	89.220
465.00	89.271
464.90	89.238
464.80	89.287
464.70	89.233
464.60	89.170
464.50	89.208
464.40	89.178
464.30	89.160
464.20	89.116
464.10	89.020
464.00	88.931
463.90	88.865
463.80	88.902
463.70	88.835
463.60	88.876
463.50	88.997
463.40	89.047
463.30	89.013
463.20	88.913
463.10	88.945
463.00	89.007
462.90	89.024
462.80	89.018
462.70	89.008
462.60	88.932
462.50	88.938
462.40	89.007
462.30	89.021
462.20	88.932
462.10	89.021
462.00	89.005
461.90	88.936
461.80	88.796
461.70	88.757
461.60	88.771
461.50	88.857
461.40	88.848
461.30	88.860
461.20	88.903
461.10	88.840
461.00	88.805
460.90	88.824
460.80	88.830
460.70	88.855
460.60	88.888
460.50	88.843
460.40	88.790
460.30	88.765
460.20	88.705
460.10	88.734
460.00	88.749
459.90	88.841
459.80	88.927
459.70	88.933
459.60	88.924
459.50	88.851
459.40	88.922
459.30	88.922
459.20	88.975
459.10	88.929
459.00	88.943
458.90	88.928
458.80	88.927
458.70	88.895
458.60	88.924
458.50	88.886
458.40	88.851
458.30	88.777
458.20	88.788
458.10	88.785
458.00	88.824
457.90	88.862
457.80	88.884
457.70	88.824
457.60	88.715
457.50	88.626
457.40	88.604
457.30	88.628
457.20	88.748
457.10	88.704
457.00	88.759
456.90	88.679
456.80	88.631
456.70	88.649
456.60	88.648
456.50	88.703
456.40	88.714
456.30	88.651
456.20	88.562
456.10	88.474
456.00	88.399
455.90	88.417
455.80	88.466
455.70	88.483
455.60	88.496
455.50	88.525
455.40	88.506
455.30	88.481
455.20	88.447
455.10	88.494
455.00	88.400
454.90	88.341
454.80	88.363
454.70	88.376
454.60	88.324
454.50	88.386
454.40	88.408
454.30	88.456
454.20	88.430
454.10	88.447
454.00	88.446
453.90	88.316
453.80	88.268
453.70	88.310
453.60	88.271
453.50	88.239
453.40	88.242
453.30	88.276
453.20	88.253
453.10	88.306
453.00	88.248
452.90	88.229
452.80	88.246
452.70	88.192
452.60	88.252
452.50	88.222
452.40	88.127
452.30	88.151
452.20	88.165
452.10	88.085
452.00	88.085
451.90	88.054
451.80	88.105
451.70	88.201
451.60	88.249
451.50	88.287
451.40	88.339
451.30	88.203
451.20	88.082
451.10	88.072
451.00	87.984
450.90	88.107
450.80	88.176
450.70	88.136
450.60	88.188
450.50	88.225
450.40	88.084
450.30	88.020
450.20	87.994
450.10	87.998
450.00	88.041
449.90	88.047
449.80	87.935
449.70	87.832
449.60	87.643
449.50	87.581
449.40	87.474
449.30	87.335
449.20	87.316
449.10	87.437
449.00	87.512
448.90	87.664
448.80	87.769
448.70	87.842
448.60	87.812
448.50	87.671
448.40	87.675
448.30	87.678
448.20	87.662
448.10	87.657
448.00	87.802
447.90	87.757
447.80	87.774
447.70	87.672
447.60	87.575
447.50	87.483
447.40	87.557
447.30	87.620
447.20	87.670
447.10	87.511
447.00	87.469
446.90	87.324
446.80	87.289
446.70	87.090
446.60	87.120
446.50	87.163
446.40	87.308
446.30	87.363
446.20	87.384
446.10	87.251
446.00	87.216
445.90	87.196
445.80	87.021
445.70	86.943
445.60	86.908
445.50	86.873
445.40	87.002
445.30	87.061
445.20	87.048
445.10	87.158
445.00	87.149
444.90	87.124
444.80	87.162
444.70	87.158
444.60	87.108
444.50	87.268
444.40	87.101
444.30	87.066
444.20	87.013
444.10	86.950
444.00	86.899
443.90	86.993
443.80	87.021
443.70	87.160
443.60	87.158
443.50	87.064
443.40	86.969
443.30	86.892
443.20	86.759
443.10	86.848
443.00	86.714
442.90	86.807
442.80	86.791
442.70	86.673
442.60	86.576
442.50	86.564
442.40	86.415
442.30	86.447
442.20	86.532
442.10	86.644
442.00	86.723
441.90	86.727
441.80	86.720
441.70	86.695
441.60	86.411
441.50	86.350
441.40	86.240
441.30	86.178
441.20	86.141
441.10	86.206
441.00	86.137
440.90	86.273
440.80	86.304
440.70	86.396
440.60	86.312
440.50	86.187
440.40	86.170
440.30	86.176
440.20	86.104
440.10	86.010
440.00	86.032
439.90	86.193
439.80	86.256
439.70	86.247
439.60	86.194
439.50	86.291
439.40	86.172
439.30	86.132
439.20	86.051
439.10	85.942
439.00	85.949
438.90	85.928
438.80	85.878
438.70	85.800
438.60	85.741
438.50	85.772
438.40	85.805
438.30	85.750
438.20	85.694
438.10	85.672
438.00	85.652
437.90	85.527
437.80	85.475
437.70	85.366
437.60	85.320
437.50	85.270
437.40	85.338
437.30	85.401
437.20	85.406
437.10	85.374
437.00	85.498
436.90	85.506
436.80	85.464
436.70	85.422
436.60	85.401
436.50	85.401
436.40	85.378
436.30	85.319
436.20	85.249
436.10	85.110
436.00	85.018
435.90	84.918
435.80	84.927
435.70	84.807
435.60	84.884
435.50	84.857
435.40	84.874
435.30	84.951
435.20	84.959
435.10	84.984
435.00	84.894
434.90	84.814
434.80	84.742
434.70	84.567
434.60	84.382
434.50	84.301
434.40	84.267
434.30	84.183
434.20	84.219
434.10	84.268
434.00	84.355
433.90	84.420
433.80	84.529
433.70	84.513
433.60	84.320
433.50	84.225
433.40	84.131
433.30	83.895
433.20	83.807
433.10	83.786
433.00	83.759
432.90	83.733
432.80	83.680
432.70	83.631
432.60	83.493
432.50	83.472
432.40	83.515
432.30	83.658
432.20	83.594
432.10	83.548
432.00	83.488
431.90	83.419
431.80	83.435
431.70	83.325
431.60	83.304
431.50	83.396
431.40	83.365
431.30	83.407
431.20	83.237
431.10	83.153
431.00	82.962
430.90	82.896
430.80	82.769
430.70	82.763
430.60	82.783
430.50	82.798
430.40	82.754
430.30	82.648
430.20	82.566
430.10	82.551
430.00	82.447
429.90	82.408
429.80	82.378
429.70	82.462
429.60	82.462
429.50	82.479
429.40	82.316
429.30	82.261
429.20	82.290
429.10	82.204
429.00	82.057
428.90	81.964
428.80	81.806
428.70	81.768
428.60	81.774
428.50	81.799
428.40	81.758
428.30	81.840
428.20	81.813
428.10	81.737
428.00	81.519
427.90	81.447
427.80	81.323
427.70	81.197
427.60	81.169
427.50	81.262
427.40	81.249
427.30	81.358
427.20	81.490
427.10	81.469
427.00	81.292
426.90	81.233
426.80	81.043
426.70	80.928
426.60	80.714
426.50	80.659
426.40	80.580
426.30	80.470
426.20	80.501
426.10	80.562
426.00	80.477
425.90	80.422
425.80	80.456
425.70	80.406
425.60	80.281
425.50	80.194
425.40	79.982
425.30	79.929
425.20	79.861
425.10	79.726
425.00	79.716
424.90	79.564
424.80	79.575
424.70	79.658
424.60	79.562
424.50	79.510
424.40	79.471
424.30	79.400
424.20	79.377
424.10	79.294
424.00	79.223
423.90	79.223
423.80	79.203
423.70	79.071
423.60	78.948
423.50	78.855
423.40	78.780
423.30	78.635
423.20	78.452
423.10	78.276
423.00	78.116
422.90	77.999
422.80	78.031
422.70	78.047
422.60	78.075
422.50	78.188
422.40	78.209
422.30	78.071
422.20	77.798
422.10	77.644
422.00	77.505
421.90	77.377
421.80	77.523
421.70	77.511
421.60	77.485
421.50	77.448
421.40	77.377
421.30	77.308
421.20	77.066
421.10	76.975
421.00	76.982
420.90	76.972
420.80	77.025
420.70	76.959
420.60	76.826
420.50	76.691
420.40	76.648
420.30	76.451
420.20	76.285
420.10	76.151
420.00	76.115
419.90	76.156
419.80	76.094
419.70	76.001
419.60	76.064
419.50	76.088
419.40	76.140
419.30	76.132
419.20	76.021
419.10	75.829
419.00	75.737
418.90	75.658
418.80	75.515
418.70	75.481
418.60	75.430
418.50	75.388
418.40	75.393
418.30	75.138
418.20	75.128
418.10	75.016
418.00	74.912
417.90	74.962
417.80	74.945
417.70	74.695
417.60	74.675
417.50	74.657
417.40	74.642
417.30	74.793
417.20	74.847
417.10	74.754
417.00	74.789
416.90	74.621
416.80	74.552
416.70	74.418
416.60	74.367
416.50	74.274
416.40	74.269
416.30	74.082
416.20	74.085
416.10	73.975
416.00	73.850
415.90	73.867
415.80	73.944
415.70	73.896
415.60	73.864
415.50	73.748
415.40	73.652
415.30	73.522
415.20	73.522
415.10	73.417
415.00	73.371
414.90	73.190
414.80	73.131
414.70	73.249
414.60	73.156
414.50	73.051
414.40	73.086
414.30	73.174
414.20	73.133
414.10	73.029
414.00	72.920
413.90	72.705
413.80	72.574
413.70	72.561
413.60	72.576
413.50	72.494
413.40	72.398
413.30	72.608
413.20	72.603
413.10	72.445
413.00	72.370
412.90	72.391
412.80	72.392
412.70	72.342
412.60	72.369
412.50	72.200
412.40	72.121
412.30	72.113
412.20	71.983
412.10	71.775
412.00	71.643
411.90	71.661
411.80	71.639
411.70	71.710
411.60	71.740
411.50	71.765
411.40	71.820
411.30	71.748
411.20	71.889
411.10	71.843
411.00	71.800
410.90	71.843
410.80	71.804
410.70	71.623
410.60	71.574
410.50	71.597
410.40	71.413
410.30	71.525
410.20	71.576
410.10	71.717
410.00	71.734
409.90	71.582
409.80	71.527
409.70	71.476
409.60	71.268
409.50	71.231
409.40	71.198
409.30	71.267
409.20	71.384
409.10	71.484
409.00	71.367
408.90	71.365
408.80	71.147
408.70	71.030
408.60	70.925
408.50	70.936
408.40	70.998
408.30	71.247
408.20	71.246
408.10	71.362
408.00	71.290
407.90	71.265
407.80	71.204
407.70	71.093
407.60	70.994
407.50	71.159
407.40	71.172
407.30	71.216
407.20	71.315
407.10	71.374
407.00	71.382
406.90	71.513
406.80	71.387
406.70	71.330
406.60	71.256
406.50	71.177
406.40	71.012
406.30	70.965
406.20	70.825
406.10	70.839
406.00	70.787
405.90	70.880
405.80	70.991
405.70	70.954
405.60	70.987
405.50	70.998
405.40	70.991
405.30	70.980
405.20	70.930
405.10	70.961
405.00	70.919
404.90	71.007
404.80	71.000
404.70	70.991
404.60	70.924
404.50	70.992
404.40	70.977
404.30	70.872
404.20	70.913
404.10	70.776
404.00	70.823
403.90	70.895
403.80	70.914
403.70	70.900
403.60	70.888
403.50	70.922
403.40	70.931
403.30	70.862
403.20	70.861
403.10	70.901
403.00	70.914
402.90	70.976
402.80	71.136
402.70	71.100
402.60	71.041
402.50	71.083
402.40	71.031
402.30	70.875
402.20	70.758
402.10	70.822
402.00	70.861
401.90	70.914
401.80	70.957
401.70	70.941
401.60	70.944
401.50	70.870
401.40	70.907
401.30	71.056
401.20	71.068
401.10	71.263
401.00	71.289
400.90	71.271
400.80	71.259
400.70	71.239
400.60	71.197
400.50	71.202
400.40	71.134
400.30	71.112
400.20	71.173
400.10	71.100
400.00	71.067
399.90	71.024
399.80	71.004
399.70	71.050
399.60	71.009
399.50	71.030
399.40	71.032
399.30	71.075
399.20	71.256
399.10	71.285
399.00	71.339
398.90	71.376
398.80	71.376
398.70	71.303
398.60	71.282
398.50	71.236
398.40	71.234
398.30	71.215
398.20	71.258
398.10	71.253
398.00	71.150
397.90	70.961
397.80	70.994
397.70	70.925
397.60	70.976
397.50	71.095
397.40	71.232
397.30	71.319
397.20	71.316
397.10	71.391
397.00	71.335
396.90	71.229
396.80	71.197
396.70	71.086
396.60	71.150
396.50	71.126
396.40	71.266
396.30	71.282
396.20	71.324
396.10	71.461
396.00	71.541
395.90	71.571
395.80	71.588
395.70	71.604
395.60	71.522
395.50	71.534
395.40	71.415
395.30	71.221
395.20	71.077
395.10	71.093
395.00	71.207
394.90	71.257
394.80	71.361
394.70	71.525
394.60	71.625
394.50	71.572
394.40	71.468
394.30	71.374
394.20	71.266
394.10	71.390
394.00	71.383
393.90	71.447
393.80	71.541
393.70	71.600
393.60	71.557
393.50	71.486
393.40	71.383
393.30	71.293
393.20	71.287
393.10	71.394
393.00	71.345
392.90	71.334
392.80	71.366
392.70	71.521
392.60	71.551
392.50	71.530
392.40	71.536
392.30	71.392
392.20	71.246
392.10	71.127
392.00	71.068
391.90	70.999
391.80	71.026
391.70	71.210
391.60	71.342
391.50	71.347
391.40	71.325
391.30	71.289
391.20	71.388
391.10	71.467
391.00	71.476
390.90	71.498
390.80	71.515
390.70	71.477
390.60	71.451
390.50	71.379
390.40	71.298
390.30	71.460
390.20	71.627
390.10	71.788
390.00	71.746
389.90	71.582
389.80	71.418
389.70	71.385
389.60	71.357
389.50	71.463
389.40	71.278
389.30	71.317
389.20	71.455
389.10	71.601
389.00	71.620
388.90	71.690
388.80	71.653
388.70	71.829
388.60	71.910
388.50	71.879
388.40	71.582
388.30	71.485
388.20	71.433
388.10	71.548
388.00	71.423
387.90	71.405
387.80	71.539
387.70	71.714
387.60	71.964
387.50	72.044
387.40	71.929
387.30	71.812
387.20	71.794
387.10	71.682
387.00	71.568
386.90	71.760
386.80	71.912
386.70	71.950
386.60	71.889
386.50	71.860
386.40	71.860
386.30	71.854
386.20	71.872
386.10	71.919
386.00	71.964
385.90	72.040
385.80	72.086
385.70	71.962
385.60	71.731
385.50	71.727
385.40	71.743
385.30	71.768
385.20	71.594
385.10	71.580
385.00	71.619
384.90	71.870
384.80	71.880
384.70	71.878
384.60	71.911
384.50	71.967
384.40	71.959
384.30	71.910
384.20	71.836
384.10	71.826
384.00	71.810
383.90	71.826
383.80	71.702
383.70	71.588
383.60	71.530
383.50	71.669
383.40	71.767
383.30	71.876
383.20	72.038
383.10	72.206
383.00	72.168
382.90	72.062
382.80	71.939
382.70	71.867
382.60	71.889
382.50	72.117
382.40	72.302
382.30	72.342
382.20	72.491
382.10	72.420
382.00	72.494
381.90	72.430
381.80	72.290
381.70	72.304
381.60	72.236
381.50	72.264
381.40	72.167
381.30	71.950
381.20	71.891
381.10	72.017
381.00	72.125
380.90	72.222
380.80	72.391
380.70	72.323
380.60	72.522
380.50	72.515
380.40	72.366
380.30	72.293
380.20	72.072
380.10	72.045
380.00	72.122
379.90	72.115
379.80	72.254
379.70	72.338
379.60	72.324
379.50	72.505
379.40	72.459
379.30	72.386
379.20	72.349
379.10	72.106
379.00	72.029
378.90	72.099
378.80	72.034
378.70	72.109
378.60	72.327
378.50	72.369
378.40	72.242
378.30	72.148
378.20	72.070
378.10	72.050
378.00	71.991
377.90	72.204
377.80	72.381
377.70	72.367
377.60	72.444
377.50	72.425
377.40	72.321
377.30	72.292
377.20	72.528
377.10	72.653
377.00	72.680
376.90	72.669
376.80	72.759
376.70	72.672
376.60	72.538
376.50	72.530
376.40	72.500
376.30	72.396
376.20	72.420
376.10	72.399
376.00	72.447
375.90	72.525
375.80	72.509
375.70	72.507
375.60	72.462
375.50	72.402
375.40	72.501
375.30	72.590
375.20	72.504
375.10	72.502
375.00	72.583
374.90	72.587
374.80	72.752
374.70	72.802
374.60	72.923
374.50	72.960
374.40	72.790
374.30	72.714
374.20	72.529
374.10	72.461
374.00	72.557
373.90	72.786
373.80	72.979
373.70	73.117
373.60	73.017
373.50	72.652
373.40	72.465
373.30	72.411
373.20	72.543
373.10	72.459
373.00	72.501
372.90	72.653
372.80	72.729
372.70	72.864
372.60	72.987
372.50	72.996
372.40	72.930
372.30	72.941
372.20	72.905
372.10	72.710
372.00	72.607
371.90	72.669
371.80	72.920
371.70	72.971
371.60	72.983
371.50	73.013
371.40	72.996
371.30	72.908
371.20	72.944
371.10	73.032
371.00	72.996
370.90	72.823
370.80	72.765
370.70	72.746
370.60	72.762
370.50	72.833
370.40	72.917
370.30	73.027
370.20	73.017
370.10	72.893
370.00	72.926
369.90	72.877
369.80	72.662
369.70	72.514
369.60	72.543
369.50	72.454
369.40	72.499
369.30	72.711
369.20	72.818
369.10	72.953
369.00	72.959
368.90	73.092
368.80	73.068
368.70	72.985
368.60	72.987
368.50	73.010
368.40	72.941
368.30	72.973
368.20	73.046
368.10	72.948
368.00	72.952
367.90	73.091
367.80	73.243
367.70	73.248
367.60	73.150
367.50	73.207
367.40	72.994
367.30	73.020
367.20	72.944
367.10	72.867
367.00	72.779
366.90	72.846
366.80	72.984
366.70	73.018
366.60	73.028
366.50	73.017
366.40	73.060
366.30	72.909
366.20	72.999
366.10	73.122
366.00	73.187
365.90	73.321
365.80	73.356
365.70	73.382
365.60	73.289
365.50	73.046
365.40	72.961
365.30	72.826
365.20	72.821
365.10	72.866
365.00	72.993
364.90	73.010
364.80	73.012
364.70	73.034
364.60	73.068
364.50	72.925
364.40	72.835
364.30	72.737
364.20	72.812
364.10	72.806
364.00	72.894
363.90	73.067
363.80	73.011
363.70	72.810
363.60	72.681
363.50	72.600
363.40	72.412
363.30	72.586
363.20	72.675
363.10	72.662
363.00	72.746
362.90	72.724
362.80	72.793
362.70	72.656
362.60	72.490
362.50	72.681
362.40	72.694
362.30	72.725
362.20	72.672
362.10	72.552
362.00	72.291
361.90	72.276
361.80	72.285
361.70	72.130
361.60	72.052
361.50	72.182
361.40	72.450
361.30	72.514
361.20	72.551
361.10	72.610
361.00	72.464
360.90	72.305
360.80	72.226
360.70	72.174
360.60	72.097
360.50	72.061
360.40	72.358
360.30	72.484
360.20	72.330
360.10	72.372
360.00	72.341
359.90	72.333
359.80	72.302
359.70	72.382
359.60	72.289
359.50	72.265
359.40	72.215
359.30	72.046
359.20	71.922
359.10	71.766
359.00	71.768
358.90	71.900
358.80	71.909
358.70	71.882
358.60	71.835
358.50	71.797
358.40	71.710
358.30	71.828
358.20	71.866
358.10	71.800
358.00	71.720
357.90	71.670
357.80	71.720
357.70	71.723
357.60	71.608
357.50	71.741
357.40	71.853
357.30	71.798
357.20	71.865
357.10	71.772
357.00	71.681
356.90	71.782
356.80	71.884
356.70	71.839
356.60	71.749
356.50	71.691
356.40	71.773
356.30	71.654
356.20	71.575
356.10	71.659
356.00	71.821
355.90	71.927
355.80	71.969
355.70	71.940
355.60	71.803
355.50	71.647
355.40	71.506
355.30	71.224
355.20	71.169
355.10	71.283
355.00	71.537
354.90	71.690
354.80	71.828
354.70	71.760
354.60	71.633
354.50	71.492
354.40	71.436
354.30	71.373
354.20	71.198
354.10	71.220
354.00	71.443
353.90	71.379
353.80	71.616
353.70	71.587
353.60	71.653
353.50	71.638
353.40	71.607
353.30	71.498
353.20	71.213
353.10	70.928
353.00	70.982
352.90	70.977
352.80	70.976
352.70	71.197
352.60	71.292
352.50	71.145
352.40	71.163
352.30	70.851
352.20	70.608
352.10	70.484
352.00	70.426
351.90	70.472
351.80	70.675
351.70	70.843
351.60	71.011
351.50	70.922
351.40	70.946
351.30	70.991
351.20	70.892
351.10	70.741
351.00	70.686
350.90	70.529
350.80	70.363
350.70	70.290
350.60	70.351
350.50	70.405
350.40	70.518
350.30	70.676
350.20	70.704
350.10	70.666
350.00	70.641
349.90	70.524
349.80	70.237
349.70	70.069
349.60	70.318
349.50	70.263
349.40	70.324
349.30	70.355
349.20	70.427
349.10	70.470
349.00	70.336
348.90	70.157
348.80	69.959
348.70	69.815
348.60	69.806
348.50	69.842
348.40	69.851
348.30	69.958
348.20	70.229
348.10	70.226
348.00	70.296
347.90	70.423
347.80	70.383
347.70	70.343
347.60	70.308
347.50	70.246
347.40	70.266
347.30	70.115
347.20	70.120
347.10	70.040
347.00	69.935
346.90	70.039
346.80	69.943
346.70	69.825
346.60	69.890
346.50	69.834
346.40	69.726
346.30	69.692
346.20	69.867
346.10	70.040
346.00	69.998
345.90	69.905
345.80	69.965
345.70	69.960
345.60	69.818
345.50	69.830
345.40	69.695
345.30	69.555
345.20	69.540
345.10	69.308
345.00	69.019
344.90	68.624
344.80	68.570
344.70	68.753
344.60	68.680
344.50	68.755
344.40	68.944
344.30	69.018
344.20	68.930
344.10	68.929
344.00	68.816
343.90	68.736
343.80	68.733
343.70	68.838
343.60	68.909
343.50	68.667
343.40	68.756
343.30	68.924
343.20	69.065
343.10	68.942
343.00	68.939
342.90	68.883
342.80	68.840
342.70	68.835
342.60	68.832
342.50	68.791
342.40	68.820
342.30	68.882
342.20	69.008
342.10	68.811
342.00	68.726
341.90	68.529
341.80	68.508
341.70	68.477
341.60	68.423
341.50	68.282
341.40	68.163
341.30	68.107
341.20	68.123
341.10	68.058
341.00	68.003
340.90	67.888
340.80	67.861
340.70	67.951
340.60	68.143
340.50	67.762
340.40	67.415
340.30	67.405
340.20	67.744
340.10	68.365
340.00	69.161
339.90	70.187
339.80	71.100
339.70	71.688
339.60	71.886
339.50	71.754
339.40	71.243
339.30	71.073
339.20	71.240
339.10	71.213
339.00	71.296
338.90	71.254
338.80	71.284
338.70	71.313
338.60	71.280
338.50	71.250
338.40	71.081
338.30	70.979
338.20	70.845
338.10	70.703
338.00	70.402
337.90	70.284
337.80	70.260
337.70	70.318
337.60	70.398
337.50	70.371
337.40	70.404
337.30	70.388
337.20	70.276
337.10	70.153
337.00	69.938
336.90	69.756
336.80	69.656
336.70	69.657
336.60	69.587
336.50	69.511
336.40	69.417
336.30	69.447
336.20	69.378
336.10	69.222
336.00	69.176
335.90	69.139
335.80	68.974
335.70	68.799
335.60	68.732
335.50	68.631
335.40	68.556
335.30	68.560
335.20	68.532
335.10	68.429
335.00	68.217
334.90	68.053
334.80	67.754
334.70	67.595
334.60	67.391
334.50	67.305
334.40	67.223
334.30	67.076
334.20	66.963
334.10	66.792
334.00	66.583
333.90	66.452
333.80	66.423
333.70	66.389
333.60	66.321
333.50	66.188
333.40	65.906
333.30	65.742
333.20	65.572
333.10	65.312
333.00	65.107
332.90	65.056
332.80	65.028
332.70	64.873
332.60	64.781
332.50	64.653
332.40	64.522
332.30	64.292
332.20	64.057
332.10	63.867
332.00	63.642
331.90	63.421
331.80	63.328
331.70	63.171
331.60	62.987
331.50	62.885
331.40	62.706
331.30	62.463
331.20	62.263
331.10	62.032
331.00	61.944
330.90	61.785
330.80	61.664
330.70	61.566
330.60	61.372
330.50	61.138
330.40	60.855
330.30	60.572
330.20	60.402
330.10	60.258
330.00	60.075
329.90	60.064
329.80	59.999
329.70	59.681
329.60	59.294
329.50	58.845
329.40	58.484
329.30	58.210
329.20	57.968
329.10	57.806
329.00	57.608
328.90	57.360
328.80	57.273
328.70	57.021
328.60	56.654
328.50	56.358
328.40	56.117
328.30	55.780
328.20	55.523
328.10	55.216
328.00	54.942
327.90	54.603
327.80	54.382
327.70	54.133
327.60	53.870
327.50	53.591
327.40	53.493
327.30	53.368
327.20	53.141
327.10	52.862
327.00	52.521
326.90	52.067
326.80	51.725
326.70	51.348
326.60	51.037
326.50	50.624
326.40	50.391
326.30	50.175
326.20	49.870
326.10	49.536
326.00	49.212
325.90	48.943
325.80	48.651
325.70	48.316
325.60	47.972
325.50	47.580
325.40	47.240
325.30	46.933
325.20	46.654
325.10	46.189
325.00	45.714
324.90	45.428
324.80	45.018
324.70	44.690
324.60	44.339
324.50	43.947
324.40	43.626
324.30	43.289
324.20	42.922
324.10	42.457
324.00	41.956
323.90	41.563
323.80	41.293
323.70	40.957
323.60	40.584
323.50	40.223
323.40	39.799
323.30	39.397
323.20	38.966
323.10	38.478
323.00	38.072
322.90	37.669
322.80	37.308
322.70	36.909
322.60	36.479
322.50	36.064
322.40	35.694
322.30	35.304
322.20	34.942
322.10	34.464
322.00	33.986
321.90	33.555
321.80	33.065
321.70	32.615
321.60	32.197
321.50	31.782
321.40	31.407
321.30	31.041
321.20	30.659
321.10	30.252
321.00	29.834
320.90	29.371
320.80	28.962
320.70	28.521
320.60	28.123
320.50	27.736
320.40	27.282
320.30	26.908
320.20	26.512
320.10	26.126
320.00	25.677
319.90	25.239
319.80	24.766
319.70	24.303
319.60	23.881
319.50	23.440
319.40	23.019
319.30	22.630
319.20	22.286
319.10	21.940
319.00	21.534
318.90	21.130
318.80	20.680
318.70	20.284
318.60	19.878
318.50	19.485
318.40	19.102
318.30	18.698
318.20	18.288
318.10	17.895
318.00	17.444
317.90	17.076
317.80	16.687
317.70	16.286
317.60	15.883
317.50	15.552
317.40	15.191
317.30	14.861
317.20	14.497
317.10	14.141
317.00	13.787
316.90	13.413
316.80	13.068
316.70	12.736
316.60	12.377
316.50	12.085
316.40	11.802
316.30	11.505
316.20	11.174
316.10	10.847
316.00	10.531
315.90	10.243
315.80	9.929
315.70	9.649
315.60	9.393
315.50	9.121
315.40	8.874
315.30	8.632
315.20	8.394
315.10	8.161
315.00	7.903
314.90	7.669
314.80	7.468
314.70	7.240
314.60	7.039
314.50	6.857
314.40	6.667
314.30	6.479
314.20	6.311
314.10	6.136
314.00	5.966
313.90	5.813
313.80	5.672
313.70	5.540
313.60	5.394
313.50	5.240
313.40	5.114
313.30	4.973
313.20	4.845
313.10	4.744
313.00	4.641
312.90	4.525
312.80	4.432
312.70	4.344
312.60	4.256
312.50	4.166
312.40	4.090
312.30	4.030
312.20	3.967
312.10	3.896
312.00	3.810
311.90	3.738
311.80	3.669
311.70	3.614
311.60	3.557
311.50	3.492
311.40	3.438
311.30	3.399
311.20	3.363
311.10	3.309
311.00	3.267
310.90	3.230
310.80	3.210
310.70	3.193
310.60	3.161
310.50	3.131
310.40	3.103
310.30	3.068
310.20	3.030
310.10	2.995
310.00	2.970
309.90	2.944
309.80	2.935
309.70	2.922
309.60	2.902
309.50	2.887
309.40	2.867
309.30	2.844
309.20	2.838
309.10	2.822
309.00	2.816
308.90	2.805
308.80	2.789
308.70	2.779
308.60	2.779
308.50	2.768
308.40	2.763
308.30	2.762
308.20	2.745
308.10	2.747
308.00	2.741
307.90	2.741
307.80	2.737
307.70	2.722
307.60	2.711
307.50	2.712
307.40	2.703
307.30	2.714
307.20	2.727
307.10	2.733
307.00	2.734
306.90	2.733
306.80	2.715
306.70	2.690
306.60	2.683
306.50	2.688
306.40	2.700
306.30	2.706
306.20	2.709
306.10	2.717
306.00	2.709
305.90	2.705
305.80	2.719
305.70	2.735
305.60	2.747
305.50	2.765
305.40	2.771
305.30	2.764
305.20	2.761
305.10	2.757
305.00	2.760
304.90	2.765
304.80	2.774
304.70	2.782
304.60	2.787
304.50	2.786
304.40	2.804
304.30	2.821
304.20	2.827
304.10	2.849
304.00	2.858
303.90	2.882
303.80	2.889
303.70	2.887
303.60	2.899
303.50	2.909
303.40	2.932
303.30	2.952
303.20	2.970
303.10	2.987
303.00	3.012
302.90	3.029
302.80	3.033
302.70	3.046
302.60	3.046
302.50	3.054
302.40	3.073
302.30	3.088
302.20	3.124
302.10	3.145
302.00	3.165
301.90	3.192
301.80	3.207
301.70	3.225
301.60	3.241
301.50	3.260
301.40	3.291
301.30	3.317
301.20	3.348
301.10	3.372
301.00	3.393
300.90	3.409
300.80	3.428
300.70	3.451
300.60	3.464
300.50	3.483
300.40	3.502
300.30	3.533
300.20	3.563
300.10	3.597
300.00	3.639
299.90	3.651
299.80	3.664
299.70	3.682
299.60	3.705
299.50	3.735
299.40	3.760
299.30	3.803
299.20	3.845
299.10	3.888
299.00	3.920
298.90	3.947
298.80	3.970
298.70	4.003
298.60	4.042
298.50	4.066
298.40	4.092
298.30	4.109
298.20	4.139
298.10	4.177
298.00	4.215
297.90	4.251
297.80	4.286
297.70	4.325
297.60	4.362
297.50	4.382
297.40	4.405
297.30	4.424
297.20	4.457
297.10	4.487
297.00	4.524
296.90	4.571
296.80	4.618
296.70	4.664
296.60	4.704
296.50	4.724
296.40	4.754
296.30	4.786
296.20	4.822
296.10	4.857
296.00	4.913
295.90	4.969
295.80	5.017
295.70	5.052
295.60	5.065
295.50	5.097
295.40	5.119
295.30	5.152
295.20	5.200
295.10	5.236
295.00	5.292
294.90	5.334
294.80	5.373
294.70	5.411
294.60	5.456
294.50	5.491
294.40	5.521
294.30	5.558
294.20	5.587
294.10	5.626
294.00	5.655
293.90	5.690
293.80	5.737
293.70	5.785
293.60	5.837
293.50	5.863
293.40	5.889
293.30	5.907
293.20	5.954
293.10	5.978
293.00	6.015
292.90	6.059
292.80	6.109
292.70	6.160
292.60	6.188
292.50	6.211
292.40	6.235
292.30	6.275
292.20	6.307
292.10	6.345
292.00	6.392
291.90	6.421
291.80	6.486
291.70	6.515
291.60	6.540
291.50	6.557
291.40	6.592
291.30	6.614
291.20	6.639
291.10	6.670
291.00	6.698
290.90	6.744
290.80	6.773
290.70	6.808
290.60	6.838
290.50	6.857
290.40	6.891
290.30	6.911
290.20	6.931
290.10	6.957
290.00	6.997
289.90	7.011
289.80	7.047
289.70	7.102
289.60	7.143
289.50	7.185
289.40	7.205
289.30	7.227
289.20	7.256
289.10	7.289
289.00	7.323
288.90	7.370
288.80	7.416
288.70	7.471
288.60	7.498
288.50	7.505
288.40	7.513
288.30	7.534
288.20	7.565
288.10	7.613
288.00	7.657
287.90	7.713
287.80	7.772
287.70	7.795
287.60	7.815
287.50	7.828
287.40	7.834
287.30	7.869
287.20	7.889
287.10	7.930
287.00	7.965
286.90	8.013
286.80	8.062
286.70	8.103
286.60	8.122
286.50	8.146
286.40	8.174
286.30	8.184
286.20	8.218
286.10	8.264
286.00	8.301
285.90	8.336
285.80	8.367
285.70	8.408
285.60	8.436
285.50	8.466
285.40	8.501
285.30	8.531
285.20	8.562
285.10	8.597
285.00	8.651
284.90	8.681
284.80	8.694
284.70	8.733
284.60	8.768
284.50	8.796
284.40	8.830
284.30	8.853
284.20	8.890
284.10	8.923
284.00	8.963
283.90	9.008
283.80	9.025
283.70	9.033
283.60	9.049
283.50	9.072
283.40	9.088
283.30	9.123
283.20	9.152
283.10	9.180
283.00	9.212
282.90	9.237
282.80	9.269
282.70	9.302
282.60	9.315
282.50	9.350
282.40	9.378
282.30	9.428
282.20	9.471
282.10	9.507
282.00	9.544
281.90	9.589
281.80	9.628
281.70	9.652
281.60	9.661
281.50	9.670
281.40	9.667
281.30	9.689
281.20	9.709
281.10	9.725
281.00	9.741
280.90	9.754
280.80	9.789
280.70	9.801
280.60	9.828
280.50	9.873
280.40	9.913
280.30	9.933
280.20	9.949
280.10	9.971
280.00	9.998
279.90	10.008
279.80	10.040
279.70	10.072
279.60	10.103
279.50	10.119
279.40	10.149
279.30	10.168
279.20	10.185
279.10	10.221
279.00	10.277
278.90	10.301
278.80	10.313
278.70	10.313
278.60	10.327
278.50	10.325
278.40	10.321
278.30	10.334
278.20	10.342
278.10	10.381
278.00	10.417
277.90	10.454
277.80	10.471
277.70	10.508
277.60	10.552
277.50	10.585
277.40	10.613
277.30	10.615
277.20	10.644
277.10	10.662
277.00	10.669
276.90	10.686
276.80	10.668
276.70	10.674
276.60	10.688
276.50	10.718
276.40	10.752
276.30	10.805
276.20	10.834
276.10	10.863
276.00	10.894
275.90	10.897
275.80	10.893
275.70	10.870
275.60	10.878
275.50	10.919
275.40	10.952
275.30	10.971
275.20	10.973
275.10	10.989
275.00	11.012
274.90	11.042
274.80	11.059
274.70	11.057
274.60	11.073
274.50	11.103
274.40	11.098
274.30	11.086
274.20	11.090
274.10	11.104
274.00	11.130
273.90	11.150
273.80	11.161
273.70	11.173
273.60	11.182
273.50	11.187
273.40	11.216
273.30	11.238
273.20	11.261
273.10	11.270
273.00	11.248
272.90	11.232
272.80	11.243
272.70	11.230
272.60	11.244
272.50	11.261
272.40	11.308
272.30	11.341
272.20	11.370
272.10	11.382
272.00	11.353
271.90	11.339
271.80	11.351
271.70	11.363
271.60	11.381
271.50	11.389
271.40	11.437
271.30	11.451
271.20	11.444
271.10	11.415
271.00	11.380
270.90	11.335
270.80	11.329
270.70	11.346
270.60	11.342
270.50	11.359
270.40	11.388
270.30	11.412
270.20	11.443
270.10	11.464
270.00	11.466
269.90	11.470
269.80	11.444
269.70	11.438
269.60	11.430
269.50	11.423
269.40	11.423
269.30	11.437
269.20	11.442
269.10	11.428
269.00	11.405
268.90	11.387
268.80	11.376
268.70	11.385
268.60	11.399
268.50	11.440
268.40	11.453
268.30	11.440
268.20	11.439
268.10	11.421
268.00	11.360
267.90	11.351
267.80	11.346
267.70	11.335
267.60	11.327
267.50	11.317
267.40	11.335
267.30	11.329
267.20	11.312
267.10	11.299
267.00	11.286
266.90	11.256
266.80	11.265
266.70	11.260
266.60	11.242
266.50	11.237
266.40	11.228
266.30	11.221
266.20	11.216
266.10	11.192
266.00	11.172
265.90	11.162
265.80	11.183
265.70	11.195
265.60	11.205
265.50	11.201
265.40	11.188
265.30	11.171
265.20	11.166
265.10	11.147
265.00	11.110
264.90	11.089
264.80	11.062
264.70	11.054
264.60	11.014
264.50	10.994
264.40	10.999
264.30	10.990
264.20	10.994
264.10	10.978
264.00	10.965
263.90	10.934
263.80	10.913
263.70	10.876
263.60	10.839
263.50	10.833
263.40	10.830
263.30	10.808
263.20	10.780
263.10	10.771
263.00	10.745
262.90	10.725
262.80	10.694
262.70	10.632
262.60	10.612
262.50	10.587
262.40	10.569
262.30	10.553
262.20	10.538
262.10	10.510
262.00	10.493
261.90	10.443
261.80	10.396
261.70	10.360
261.60	10.329
261.50	10.315
261.40	10.330
261.30	10.331
261.20	10.316
261.10	10.296
261.00	10.250
260.90	10.230
260.80	10.180
260.70	10.135
260.60	10.086
260.50	10.071
260.40	10.063
260.30	10.035
260.20	10.012
260.10	9.968
260.00	9.958
259.90	9.927
259.80	9.891
259.70	9.846
259.60	9.811
259.50	9.816
259.40	9.790
259.30	9.782
259.20	9.738
259.10	9.718
259.00	9.699
258.90	9.658
258.80	9.613
258.70	9.575
258.60	9.563
258.50	9.505
258.40	9.461
258.30	9.412
258.20	9.366
258.10	9.334
258.00	9.302
257.90	9.266
257.80	9.223
257.70	9.191
257.60	9.155
257.50	9.099
257.40	9.047
257.30	9.014
257.20	9.001
257.10	8.959
257.00	8.928
256.90	8.915
256.80	8.893
256.70	8.855
256.60	8.824
256.50	8.769
256.40	8.698
256.30	8.641
256.20	8.593
256.10	8.528
256.00	8.470
255.90	8.434
255.80	8.399
255.70	8.357
255.60	8.312
255.50	8.263
255.40	8.235
255.30	8.193
255.20	8.167
255.10	8.135
255.00	8.070
254.90	8.029
254.80	7.995
254.70	7.943
254.60	7.880
254.50	7.835
254.40	7.785
254.30	7.734
254.20	7.686
254.10	7.624
254.00	7.582
253.90	7.517
253.80	7.469
253.70	7.424
253.60	7.361
253.50	7.320
253.40	7.280
253.30	7.216
253.20	7.168
253.10	7.120
253.00	7.085
252.90	7.030
252.80	6.990
252.70	6.949
252.60	6.910
252.50	6.848
252.40	6.786
252.30	6.730
252.20	6.672
252.10	6.627
252.00	6.593
251.90	6.539
251.80	6.506
251.70	6.457
251.60	6.425
251.50	6.359
251.40	6.310
251.30	6.259
251.20	6.217
251.10	6.155
251.00	6.103
250.90	6.063
250.80	6.010
250.70	5.950
250.60	5.915
250.50	5.853
250.40	5.804
250.30	5.743
250.20	5.693
250.10	5.637
250.00	5.582
249.90	5.533
249.80	5.504
249.70	5.450
249.60	5.408
249.50	5.361
249.40	5.312
249.30	5.244
249.20	5.202
249.10	5.143
249.00	5.100
248.90	5.061
248.80	5.034
248.70	4.995
248.60	4.953
248.50	4.897
248.40	4.840
248.30	4.782
248.20	4.715
248.10	4.646
248.00	4.593
247.90	4.531
247.80	4.481
247.70	4.430
247.60	4.370
247.50	4.309
247.40	4.266
247.30	4.219
247.20	4.166
247.10	4.116
247.00	4.064
246.90	4.027
246.80	3.970
246.70	3.900
246.60	3.838
246.50	3.779
246.40	3.723
246.30	3.671
246.20	3.619
246.10	3.571
246.00	3.517
245.90	3.470
245.80	3.414
245.70	3.357
245.60	3.298
245.50	3.242
245.40	3.189
245.30	3.136
245.20	3.085
245.10	3.033
245.00	2.984
244.90	2.924
244.80	2.873
244.70	2.828
244.60	2.771
244.50	2.713
244.40	2.661
244.30	2.610
244.20	2.566
244.10	2.524
244.00	2.479
243.90	2.442
243.80	2.405
243.70	2.364
243.60	2.321
243.50	2.266
243.40	2.216
243.30	2.164
243.20	2.112
243.10	2.068
243.00	2.030
242.90	1.996
242.80	1.957
242.70	1.922
242.60	1.880
242.50	1.843
242.40	1.804
242.30	1.763
242.20	1.727
242.10	1.681
242.00	1.635
241.90	1.600
241.80	1.565
241.70	1.537
241.60	1.506
241.50	1.484
241.40	1.459
241.30	1.434
241.20	1.401
241.10	1.371
241.00	1.338
240.90	1.309
240.80	1.281
240.70	1.244
240.60	1.205
240.50	1.169
240.40	1.139
240.30	1.119
240.20	1.097
240.10	1.074
240.00	1.053
239.90	1.035
239.80	1.014
239.70	0.985
239.60	0.956
239.50	0.936
239.40	0.919
239.30	0.899
239.20	0.881
239.10	0.868
239.00	0.859
238.90	0.849
238.80	0.838
238.70	0.821
238.60	0.804
238.50	0.792
238.40	0.783
238.30	0.766
238.20	0.749
238.10	0.740
238.00	0.737
237.90	0.727
237.80	0.719
237.70	0.714
237.60	0.709
237.50	0.706
237.40	0.704
237.30	0.699
237.20	0.692
237.10	0.694
237.00	0.700
236.90	0.703
236.80	0.699
236.70	0.709
236.60	0.725
236.50	0.735
236.40	0.748
236.30	0.763
236.20	0.775
236.10	0.786
236.00	0.794
235.90	0.804
235.80	0.810
235.70	0.827
235.60	0.848
235.50	0.870
235.40	0.889
235.30	0.917
235.20	0.943
235.10	0.970
235.00	0.997
234.90	1.026
234.80	1.062
234.70	1.102
234.60	1.132
234.50	1.168
234.40	1.197
234.30	1.236
234.20	1.270
234.10	1.303
234.00	1.344
233.90	1.388
233.80	1.429
233.70	1.477
233.60	1.521
233.50	1.567
233.40	1.616
233.30	1.672
233.20	1.725
233.10	1.777
233.00	1.817
232.90	1.872
232.80	1.935
232.70	1.994
232.60	2.068
232.50	2.130
232.40	2.190
232.30	2.259
232.20	2.316
232.10	2.377
232.00	2.437
231.90	2.495
231.80	2.565
231.70	2.642
231.60	2.705
231.50	2.779
231.40	2.856
231.30	2.927
231.20	3.022
231.10	3.092
231.00	3.154
230.90	3.220
230.80	3.286
230.70	3.362
230.60	3.445
230.50	3.518
230.40	3.612
230.30	3.707
230.20	3.799
230.10	3.891
230.00	3.982
229.90	4.067
229.80	4.159
229.70	4.246
229.60	4.328
229.50	4.413
229.40	4.512
229.30	4.619
229.20	4.733
229.10	4.843
229.00	4.968
228.90	5.081
228.80	5.175
228.70	5.260
228.60	5.366
228.50	5.467
228.40	5.558
228.30	5.680
228.20	5.789
228.10	5.891
228.00	6.014
227.90	6.141
227.80	6.255
227.70	6.398
227.60	6.540
227.50	6.684
227.40	6.803
227.30	6.917
227.20	7.048
227.10	7.156
227.00	7.298
226.90	7.465
226.80	7.625
226.70	7.748
226.60	7.894
226.50	8.054
226.40	8.166
226.30	8.298
226.20	8.442
226.10	8.613
226.00	8.760
225.90	8.913
225.80	9.082
225.70	9.223
225.60	9.395
225.50	9.543
225.40	9.700
225.30	9.859
225.20	10.030
225.10	10.219
225.00	10.393
224.90	10.584
224.80	10.755
224.70	10.947
224.60	11.100
224.50	11.221
224.40	11.344
224.30	11.488
224.20	11.662
224.10	11.817
224.00	11.986
223.90	12.177
223.80	12.357
223.70	12.499
223.60	12.661
223.50	12.829
223.40	12.985
223.30	13.170
223.20	13.360
223.10	13.525
223.00	13.693
222.90	13.871
222.80	14.043
222.70	14.209
222.60	14.383
222.50	14.585
222.40	14.775
222.30	14.935
222.20	15.116
222.10	15.263
222.00	15.404
221.90	15.552
221.80	15.694
221.70	15.862
221.60	16.072
221.50	16.271
221.40	16.463
221.30	16.668
221.20	16.840
221.10	16.988
221.00	17.086
220.90	17.174
220.80	17.324
220.70	17.501
220.60	17.688
220.50	17.916
220.40	18.050
220.30	18.222
220.20	18.427
220.10	18.633
220.00	18.781
219.90	18.918
219.80	19.098
219.70	19.289
219.60	19.430
219.50	19.589
219.40	19.777
219.30	19.965
219.20	20.129
219.10	20.346
219.00	20.445
218.90	20.556
218.80	20.646
218.70	20.787
218.60	20.974
218.50	21.173
218.40	21.380
218.30	21.608
218.20	21.786
218.10	21.997
218.00	22.179
217.90	22.351
217.80	22.514
217.70	22.700
217.60	22.869
217.50	23.055
217.40	23.231
217.30	23.333
217.20	23.433
217.10	23.617
217.00	23.790
216.90	24.010
216.80	24.215
216.70	24.482
216.60	24.721
216.50	24.902
216.40	25.009
216.30	25.128
216.20	25.242
216.10	25.383
216.00	25.636
215.90	25.876
215.80	26.049
215.70	26.259
215.60	26.419
215.50	26.600
215.40	26.701
215.30	26.827
215.20	26.977
215.10	27.160
215.00	27.284
214.90	27.431
214.80	27.595
214.70	27.770
214.60	27.996
214.50	28.193
214.40	28.372
214.30	28.545
214.20	28.666
214.10	28.817
214.00	28.929
213.90	28.980
213.80	29.096
213.70	29.267
213.60	29.434
213.50	29.593
213.40	29.750
213.30	29.863
213.20	30.010
213.10	30.147
213.00	30.264
212.90	30.372
212.80	30.485
212.70	30.660
212.60	30.840
212.50	30.901
212.40	31.011
212.30	31.091
212.20	31.165
212.10	31.275
212.00	31.360
211.90	31.485
211.80	31.584
211.70	31.695
211.60	31.714
211.50	31.804
211.40	31.913
211.30	32.045
211.20	32.225
211.10	32.370
211.00	32.496
210.90	32.541
210.80	32.550
210.70	32.571
210.60	32.546
210.50	32.642
210.40	32.762
210.30	32.894
210.20	32.914
210.10	33.073
210.00	33.183
209.90	33.254
209.80	33.334
209.70	33.488
209.60	33.612
209.50	33.733
209.40	33.821
209.30	33.930
209.20	33.920
209.10	33.964
209.00	33.931
208.90	33.928
208.80	33.912
208.70	34.020
208.60	34.175
208.50	34.292
208.40	34.391
208.30	34.476
208.20	34.490
208.10	34.454
208.00	34.465
207.90	34.445
207.80	34.411
207.70	34.550
207.60	34.484
207.50	34.502
207.40	34.529
207.30	34.542
207.20	34.668
207.10	34.725
207.00	34.692
206.90	34.652
206.80	34.670
206.70	34.659
206.60	34.669
206.50	34.709
206.40	34.696
206.30	34.737
206.20	34.684
206.10	34.766
206.00	34.783
205.90	34.723
205.80	34.781
205.70	34.873
205.60	34.851
205.50	34.793
205.40	34.803
205.30	34.736
205.20	34.677
205.10	34.697
205.00	34.603
204.90	34.596
204.80	34.547
204.70	34.598
204.60	34.562
204.50	34.633
204.40	34.632
204.30	34.574
204.20	34.371
204.10	34.195
204.00	34.029
203.90	33.926
203.80	34.004
203.70	34.008
203.60	33.903
203.50	33.965
203.40	33.940
203.30	33.776
203.20	33.547
203.10	33.469
203.00	33.364
202.90	33.392
202.80	33.363
202.70	33.305
202.60	33.138
202.50	32.967
202.40	32.887
202.30	32.738
202.20	32.597
202.10	32.478
202.00	32.412
201.90	32.344
201.80	32.260
201.70	32.152
201.60	32.015
201.50	31.975
201.40	31.909
201.30	31.732
201.20	31.593
201.10	31.388
201.00	31.241
200.90	31.003
200.80	30.920
200.70	30.835
200.60	30.838
200.50	30.894
200.40	30.837
200.30	30.704
200.20	30.538
200.10	30.394
200.00	30.236

