ｻﾝﾌﾟﾙ:	Au_200_900__05%R.txt
ﾌｧｲﾙ名:	Au_200_900__05%R.txt.UDS
分析日時:	'14:22:54, 09/27/2024
ｵﾍﾟﾚｰﾀ:	OB
ｺﾒﾝﾄ:	'

光度計
ﾓﾃﾞﾙ:	U-3900形分光光度計
ｼﾘｱﾙ No.:	'3004-010
ROM Ver.:	2J25300 07

装置条件
測定ﾓｰﾄﾞ:	波長ｽｷｬﾝ
ﾃﾞｰﾀﾓｰﾄﾞ:	%R
開始波長:	900.00 nm
終了波長:	200.00 nm
ｽｷｬﾝｽﾋﾟｰﾄﾞ:	60 nm/min
ｻﾝﾌﾟﾘﾝｸﾞ間隔:	0.10 nm
初期待ち時間:	0 s
繰り返し周期:	0.0 min
測定回数:	1
測定前ｵｰﾄｾﾞﾛ:	Off
ｽﾘｯﾄ:	0.5 nm
ﾎﾄﾏﾙ電圧:	自動制御
光源切換ﾓｰﾄﾞ:	自動切換
光源切換波長:	340.00 nm
ﾍﾞｰｽﾗｲﾝ設定:	ﾕｰｻﾞ 1
高分解能測定:	Off
D2ﾗﾝﾌﾟ:	On
WIﾗﾝﾌﾟ:	On
R/S反転:	Off

ﾋﾟｰｸ検出
検出方法:	Rectangular
感度:	1
しきい値:	0.0100

ﾋﾟｰｸ
ﾋﾟｰｸ No.	開始 (nm)	ﾋﾟｰｸ (nm)	終了 (nm)	高さ (%R)	ﾊﾞﾚｰ (nm)	ﾊﾞﾚｰ (%R)
1	897.80	896.90	895.80	89.164	895.80	92.728
2	895.80	895.40	894.70	87.933	894.70	92.862
3	894.70	894.00	892.80	88.377	892.80	94.455
4	892.80	892.20	891.70	90.598	891.70	92.737
5	891.70	890.70	890.10	89.028	890.10	93.479
6	890.10	889.20	888.70	89.623	888.70	93.803
7	888.70	888.20	887.80	88.342	887.80	93.345
8	887.80	887.40	886.50	86.601	886.50	94.413
9	886.50	885.80	885.10	87.305	885.10	93.594
10	885.10	883.90	883.00	90.225	883.00	93.598
11	883.00	882.30	881.80	89.866	881.80	93.245
12	881.80	881.50	881.00	90.947	881.00	94.515
13	881.00	880.40	879.10	88.570	879.10	94.108
14	879.10	878.60	877.90	91.533	877.90	94.310
15	877.90	875.70	874.80	89.684	874.80	94.506
16	874.80	874.30	873.90	92.281	873.90	95.676
17	873.90	872.80	872.50	91.425	872.50	92.958
18	872.50	872.10	871.20	90.387	871.20	92.945
19	871.20	870.60	869.50	89.671	869.50	94.838
20	869.50	868.90	868.40	89.450	868.40	91.643
21	868.40	868.10	866.20	89.237	866.20	96.231
22	866.20	865.00	864.50	92.620	864.50	95.693
23	864.50	863.90	863.50	92.210	863.50	94.553
24	863.50	863.00	862.30	89.712	862.30	95.444
25	862.30	861.10	860.60	89.970	860.60	93.089
26	860.60	860.10	859.70	90.663	859.70	96.586
27	859.70	859.30	858.80	91.440	858.80	96.049
28	858.80	857.00	855.70	89.758	855.70	95.270
29	855.70	854.90	854.40	91.439	854.40	95.356
30	854.40	853.20	852.70	92.017	852.70	94.772
31	852.70	851.70	851.30	92.073	851.30	94.407
32	851.30	850.70	850.20	91.197	850.20	93.635
33	850.20	849.30	848.70	91.204	848.70	94.441
34	848.70	848.30	847.60	92.478	847.60	96.953
35	847.60	846.00	845.70	90.495	845.70	94.803
36	845.70	845.30	844.00	92.516	844.00	94.730
37	844.00	843.40	842.80	92.160	842.80	96.474
38	842.80	842.30	842.00	92.111	842.00	95.080
39	842.00	841.40	841.00	91.723	841.00	94.126
40	841.00	840.70	839.10	92.230	839.10	95.919
41	839.10	837.40	836.90	93.130	836.90	96.042
42	836.90	836.20	835.60	93.678	835.60	95.870
43	835.60	835.10	834.30	93.279	834.30	97.063
44	834.30	833.10	832.70	93.593	832.70	97.261
45	832.70	832.00	830.30	92.057	830.30	95.742
46	830.30	830.00	829.20	93.456	829.20	97.220
47	829.20	828.60	828.20	94.346	828.20	96.476
48	828.20	827.60	827.00	93.339	827.00	96.210
49	827.00	826.40	825.30	93.373	825.30	97.904
50	825.30	824.70	824.30	94.429	824.30	96.774
51	824.30	823.80	823.10	94.821	823.10	96.372
52	823.10	822.70	822.30	94.353	822.30	95.994
53	822.30	821.90	820.60	93.183	820.60	98.025
54	820.60	818.90	818.20	93.606	818.20	95.644
55	818.20	817.90	816.80	94.467	816.80	97.054
56	816.80	816.10	814.10	93.101	814.10	96.726
57	814.10	813.70	813.20	94.962	813.20	96.878
58	813.20	812.80	812.40	95.431	812.40	97.216
59	812.40	812.00	811.70	96.105	811.70	97.265
60	811.70	811.10	809.20	93.964	809.20	97.249
61	809.20	808.80	808.30	94.484	808.30	97.333
62	808.30	808.00	807.00	96.114	807.00	97.331
63	807.00	806.40	804.40	94.728	804.40	97.209
64	804.40	803.90	803.30	95.108	803.30	98.425
65	803.30	802.80	802.30	95.420	802.30	98.130
66	802.30	801.80	801.10	96.509	801.10	97.682
67	801.10	800.00	799.30	95.059	799.30	97.583
68	799.30	796.90	796.20	95.807	796.20	97.358
69	796.20	795.90	794.60	96.307	794.60	97.392
70	794.60	793.40	793.10	96.522	793.10	97.818
71	793.10	792.50	792.00	96.047	792.00	97.974
72	792.00	791.40	790.60	96.136	790.60	97.653
73	790.60	790.30	789.90	96.680	789.90	97.883
74	789.90	789.50	788.80	96.085	788.80	97.485
75	788.80	788.20	787.90	96.730	787.90	97.887
76	787.90	787.40	786.60	96.360	786.60	98.196
77	786.60	785.60	785.30	97.134	785.30	98.031
78	785.30	784.70	783.80	96.180	783.80	98.324
79	783.80	783.00	782.10	96.712	782.10	97.610
80	782.10	781.00	779.90	96.857	779.90	98.323
81	779.90	779.30	778.90	96.415	778.90	98.201
82	778.90	778.40	776.90	96.862	776.90	98.101
83	776.90	776.40	776.10	97.235	776.10	98.191
84	776.10	775.70	774.40	96.861	774.40	98.664
85	774.40	773.40	772.80	97.107	772.80	98.446
86	772.80	772.40	771.60	97.653	771.60	98.345
87	771.60	771.10	770.40	97.390	770.40	99.080
88	770.40	769.70	769.20	96.738	769.20	98.324
89	769.20	768.60	768.20	96.903	768.20	98.440
90	768.20	767.50	766.20	96.605	766.20	98.330
91	766.20	765.70	764.10	97.205	764.10	98.743
92	764.10	763.40	762.50	97.647	762.50	98.556
93	762.50	761.40	761.00	97.119	761.00	98.343
94	761.00	760.30	759.00	97.387	759.00	98.555
95	759.00	757.60	757.30	97.103	757.30	98.144
96	757.30	756.60	755.90	96.975	755.90	98.284
97	755.90	755.40	754.80	97.231	754.80	98.355
98	754.80	754.40	753.90	97.524	753.90	98.578
99	753.90	752.70	751.30	96.956	751.30	98.624
100	751.30	750.70	750.20	97.773	750.20	98.395
101	750.20	748.90	747.90	97.652	747.90	98.570
102	747.90	747.50	747.20	98.044	747.20	98.853
103	747.20	746.60	746.30	98.050	746.30	99.119
104	746.30	745.90	745.40	97.904	745.40	99.059
105	745.40	744.80	743.50	98.375	743.50	99.355
106	743.50	742.80	742.00	98.843	742.00	99.844
107	742.00	741.50	741.00	98.122	741.00	99.182
108	741.00	739.20	738.50	97.771	738.50	98.770
109	738.50	736.40	735.80	97.503	735.80	99.054
110	735.80	735.40	734.80	98.028	734.80	98.305
111	734.80	734.10	733.50	98.131	733.50	98.681
112	733.50	732.70	731.20	97.537	731.20	98.321
113	731.20	730.60	730.20	97.942	730.20	98.325
114	730.20	729.90	728.80	97.739	728.80	99.095
115	728.80	726.90	725.00	97.131	725.00	98.055
116	725.00	724.50	724.00	97.336	724.00	98.692
117	724.00	723.30	722.10	97.705	722.10	98.686
118	722.10	720.40	719.70	97.653	719.70	98.576
119	719.70	719.00	718.70	97.934	718.70	98.471
120	718.70	718.20	717.40	98.037	717.40	98.436
121	717.40	717.10	716.70	97.992	716.70	98.540
122	716.70	716.10	713.70	97.471	713.70	98.268
123	713.70	712.80	712.30	97.564	712.30	97.988
124	712.30	711.90	710.60	97.415	710.60	98.375
125	710.60	709.90	709.40	97.549	709.40	98.088
126	709.40	708.10	707.60	97.533	707.60	98.197
127	707.60	707.10	706.60	97.316	706.60	98.287
128	706.60	706.20	705.70	97.404	705.70	98.092
129	705.70	705.30	704.90	97.669	704.90	98.096
130	704.90	704.20	703.00	97.437	703.00	98.159
131	703.00	702.30	701.90	97.571	701.90	98.259
132	701.90	700.60	699.90	97.562	699.90	97.996
133	699.90	699.30	698.80	97.592	698.80	98.052
134	698.80	698.20	697.70	97.403	697.70	98.230
135	697.70	697.20	696.30	97.833	696.30	98.194
136	696.30	695.60	695.00	97.756	695.00	98.027
137	695.00	694.20	693.60	97.512	693.60	97.778
138	693.60	693.20	692.70	97.342	692.70	98.027
139	692.70	691.50	691.00	97.383	691.00	97.664
140	691.00	690.60	689.50	97.500	689.50	97.994
141	689.50	688.90	688.70	97.781	688.70	97.993
142	688.70	688.10	687.60	97.433	687.60	97.617
143	687.60	686.70	686.00	97.410	686.00	97.823
144	686.00	684.90	684.10	97.393	684.10	97.822
145	684.10	682.10	681.50	97.481	681.50	97.718
146	681.50	681.10	680.20	97.304	680.20	97.697
147	680.20	679.70	678.70	97.144	678.70	97.658
148	678.70	678.00	677.50	97.002	677.50	97.451
149	677.50	676.60	676.10	96.890	676.10	97.419
150	676.10	675.00	674.30	96.685	674.30	97.170
151	674.30	673.60	671.40	96.723	671.40	97.605
152	671.40	669.60	668.90	96.763	668.90	97.287
153	668.90	668.10	666.90	96.835	666.90	97.396
154	666.90	666.40	665.50	96.848	665.50	97.168
155	665.50	664.90	664.10	96.597	664.10	96.843
156	664.10	662.70	662.10	96.499	662.10	96.817
157	662.10	661.50	661.10	96.420	661.10	96.825
158	661.10	660.50	659.30	96.574	659.30	96.956
159	659.30	657.70	657.30	96.256	657.30	96.596
160	657.30	656.30	656.00	96.276	656.00	96.523
161	656.00	655.40	655.10	96.220	655.10	96.493
162	655.10	653.70	653.30	95.673	653.30	95.927
163	653.30	652.70	652.20	95.462	652.20	95.933
164	652.20	651.70	651.20	95.726	651.20	96.217
165	651.20	650.70	650.20	95.729	650.20	95.961
166	650.20	649.90	649.10	95.733	649.10	95.931
167	649.10	648.00	647.40	95.335	647.40	95.820
168	647.40	646.50	646.00	95.241	646.00	95.567
169	646.00	645.50	644.70	95.133	644.70	95.441
170	644.70	644.00	643.60	95.142	643.60	95.474
171	643.60	643.00	642.40	94.871	642.40	95.209
172	642.40	641.40	640.10	94.482	640.10	95.059
173	640.10	638.80	637.50	94.267	637.50	94.530
174	637.50	637.00	636.40	94.106	636.40	94.561
175	636.40	636.00	635.70	94.078	635.70	94.432
176	635.70	635.10	634.70	93.880	634.70	94.218
177	634.70	634.00	633.60	94.012	633.60	94.305
178	633.60	633.00	632.40	93.742	632.40	94.312
179	632.40	631.90	630.60	93.647	630.60	94.135
180	630.60	628.90	627.80	93.258	627.80	93.830
181	627.80	627.20	626.10	93.280	626.10	93.849
182	626.10	625.60	624.50	93.183	624.50	93.745
183	624.50	623.00	622.70	93.187	622.70	93.354
184	622.70	622.20	621.90	93.139	621.90	93.504
185	621.90	621.40	620.90	93.059	620.90	93.390
186	620.90	619.10	618.20	92.742	618.20	93.082
187	618.20	617.00	616.50	92.605	616.50	92.909
188	616.50	615.40	614.90	92.319	614.90	92.608
189	614.90	613.30	612.60	92.224	612.60	92.704
190	612.60	610.80	610.30	91.967	610.30	92.318
191	610.30	609.30	608.80	91.824	608.80	92.132
192	608.80	608.50	608.00	91.918	608.00	92.068
193	608.00	606.80	606.30	91.636	606.30	92.080
194	606.30	605.10	604.30	91.476	604.30	91.727
195	604.30	603.80	603.10	91.223	603.10	91.573
196	603.10	602.40	601.20	90.884	601.20	91.497
197	601.20	600.00	599.60	90.579	599.60	91.044
198	599.60	599.00	598.40	90.422	598.40	90.872
199	598.40	597.90	597.70	90.422	597.70	90.728
200	597.70	597.00	596.70	90.011	596.70	90.285
201	596.70	596.40	595.80	90.054	595.80	90.528
202	595.80	595.30	594.90	89.982	594.90	90.384
203	594.90	593.90	593.50	89.802	593.50	90.198
204	593.50	593.10	592.50	89.826	592.50	90.379
205	592.50	591.10	590.40	89.546	590.40	89.949
206	590.40	589.90	589.50	89.438	589.50	89.743
207	589.50	588.90	588.60	89.354	588.60	89.714
208	588.60	587.30	586.00	89.048	586.00	89.388
209	586.00	584.90	584.40	88.845	584.40	89.277
210	584.40	580.70	580.10	87.711	580.10	87.948
211	580.10	579.60	578.40	87.502	578.40	87.972
212	578.40	577.60	577.20	87.495	577.20	87.713
213	577.20	575.20	574.80	86.854	574.80	87.102
214	574.80	574.00	573.50	86.517	573.50	86.821
215	573.50	572.30	571.90	86.115	571.90	86.397
216	571.90	571.30	570.80	85.887	570.80	86.452
217	570.80	569.40	569.20	85.735	569.20	85.829
218	569.20	567.90	567.30	85.200	567.30	85.487
219	567.30	565.10	564.50	84.358	564.50	84.635
220	564.50	561.80	561.20	83.601	561.20	83.788
221	561.20	558.40	558.00	82.575	558.00	82.834
222	558.00	552.70	552.10	80.668	552.10	80.881
223	552.10	549.20	548.70	79.619	548.70	79.772
224	548.70	547.20	546.80	78.671	546.80	78.869
225	546.80	485.50	485.00	36.439	485.00	36.562
226	485.00	477.60	477.00	34.947	477.00	35.191
227	477.00	474.60	474.00	34.789	474.00	34.910
228	474.00	472.80	472.00	34.658	472.00	34.805
229	472.00	470.70	469.70	34.654	469.70	34.781
230	469.70	469.00	467.70	34.629	467.70	34.820
231	467.70	467.40	467.10	34.719	467.10	34.771
232	467.10	466.60	466.20	34.721	466.20	34.806
233	466.20	465.70	465.10	34.684	465.10	34.840
234	465.10	464.30	463.80	34.687	463.80	34.906
235	463.80	462.60	462.10	34.738	462.10	34.861
236	462.10	461.70	461.20	34.741	461.20	34.955
237	461.20	460.70	459.60	34.771	459.60	34.948
238	459.60	459.30	458.00	34.759	458.00	35.025
239	458.00	457.40	457.00	34.903	457.00	35.008
240	457.00	456.70	455.40	34.884	455.40	35.091
241	455.40	454.90	454.00	34.962	454.00	35.117
242	454.00	453.40	452.80	34.907	452.80	35.122
243	452.80	452.00	451.40	34.967	451.40	35.182
244	451.40	451.00	449.90	35.048	449.90	35.211
245	449.90	449.00	448.00	35.017	448.00	35.209
246	448.00	446.60	446.20	35.046	446.20	35.134
247	446.20	445.70	445.40	35.031	445.40	35.153
248	445.40	444.90	442.90	34.991	442.90	35.322
249	442.90	442.40	441.90	35.179	441.90	35.331
250	441.90	441.60	440.70	35.189	440.70	35.370
251	440.70	439.40	438.90	35.193	438.90	35.368
252	438.90	438.50	436.10	35.167	436.10	35.456
253	436.10	435.50	434.70	35.303	434.70	35.522
254	434.70	434.10	433.70	35.312	433.70	35.601
255	433.70	432.50	431.30	35.209	431.30	35.626
256	431.30	430.70	430.40	35.392	430.40	35.521
257	430.40	429.90	429.40	35.241	429.40	35.602
258	429.40	428.00	427.30	35.353	427.30	35.563
259	427.30	426.60	426.10	35.309	426.10	35.503
260	426.10	425.30	424.20	35.321	424.20	35.507
261	424.20	423.50	422.60	35.382	422.60	35.571
262	422.60	421.90	421.40	35.362	421.40	35.482
263	421.40	421.00	420.50	35.258	420.50	35.470
264	420.50	420.10	419.20	35.305	419.20	35.641
265	419.20	418.60	418.40	35.351	418.40	35.497
266	418.40	418.00	416.80	35.351	416.80	35.524
267	416.80	416.30	415.50	35.352	415.50	35.516
268	415.50	415.20	414.60	35.358	414.60	35.565
269	414.60	414.00	412.90	35.402	412.90	35.509
270	412.90	412.40	411.70	35.299	411.70	35.334
271	411.70	411.40	410.80	35.170	410.80	35.503
272	410.80	410.30	410.00	35.323	410.00	35.517
273	410.00	409.30	408.30	35.200	408.30	35.479
274	408.30	407.20	406.80	35.249	406.80	35.420
275	406.80	405.50	404.90	35.213	404.90	35.398
276	404.90	403.60	402.90	35.129	402.90	35.348
277	402.90	402.20	401.80	35.176	401.80	35.318
278	401.80	400.70	400.20	35.067	400.20	35.277
279	400.20	399.30	398.60	35.115	398.60	35.382
280	398.60	397.90	397.10	34.885	397.10	35.339
281	397.10	395.10	394.70	35.038	394.70	35.202
282	394.70	394.30	393.80	34.892	393.80	35.248
283	393.80	392.10	391.40	34.611	391.40	34.953
284	391.40	389.40	388.30	34.660	388.30	34.941
285	388.30	387.90	387.50	34.643	387.50	34.966
286	387.50	387.00	386.60	34.646	386.60	34.933
287	386.60	384.60	384.10	34.471	384.10	34.625
288	384.10	383.60	383.10	34.420	383.10	34.602
289	383.10	382.80	382.40	34.433	382.40	34.655
290	382.40	381.90	381.00	34.394	381.00	34.535
291	381.00	380.10	379.60	34.219	379.60	34.441
292	379.60	379.00	378.60	34.116	378.60	34.320
293	378.60	377.40	376.80	34.079	376.80	34.311
294	376.80	376.20	375.10	33.952	375.10	34.212
295	375.10	373.20	372.50	33.726	372.50	33.993
296	372.50	370.80	370.40	33.617	370.40	33.771
297	370.40	369.40	368.90	33.352	368.90	33.623
298	368.90	368.50	368.20	33.455	368.20	33.578
299	368.20	367.10	366.70	33.316	366.70	33.603
300	366.70	365.40	365.00	33.188	365.00	33.372
301	365.00	364.20	363.50	33.071	363.50	33.310
302	363.50	363.10	362.90	33.026	362.90	33.192
303	362.90	362.20	361.40	32.870	361.40	33.033
304	361.40	360.50	359.90	32.662	359.90	33.010
305	359.90	358.30	358.10	32.479	358.10	32.657
306	358.10	357.60	357.10	32.527	357.10	32.684
307	357.10	356.90	356.40	32.547	356.40	32.706
308	356.40	356.10	355.70	32.549	355.70	32.731
309	355.70	355.00	354.30	32.347	354.30	32.594
310	354.30	353.00	352.40	32.401	352.40	32.558
311	352.40	351.60	351.10	32.374	351.10	32.503
312	351.10	350.60	350.10	32.215	350.10	32.485
313	350.10	349.70	349.20	32.252	349.20	32.582
314	349.20	348.70	347.90	32.350	347.90	32.664
315	347.90	347.30	345.70	32.450	345.70	32.851
316	345.70	344.90	343.70	32.370	343.70	32.896
317	343.70	343.40	341.50	32.740	341.50	33.132
318	341.50	340.90	338.50	32.765	338.50	34.555
319	338.50	337.40	335.90	34.365	335.90	34.657
320	335.90	335.40	334.30	34.573	334.30	34.812
321	334.30	333.90	332.70	34.686	332.70	34.959
322	332.70	332.30	331.80	34.831	331.80	34.952
323	331.80	331.10	329.60	34.855	329.60	35.190
324	329.60	329.20	328.70	35.082	328.70	35.274
325	328.70	328.20	324.90	34.946	324.90	35.444
326	324.90	324.40	322.20	35.304	322.20	35.648
327	322.20	321.50	320.40	35.505	320.40	35.725
328	320.40	319.90	318.40	35.551	318.40	35.942
329	318.40	317.80	317.00	35.646	317.00	35.952
330	317.00	315.70	315.20	35.769	315.20	35.970
331	315.20	314.60	314.20	35.800	314.20	35.997
332	314.20	313.60	312.20	35.867	312.20	36.073
333	312.20	311.30	310.70	35.991	310.70	36.082
334	310.70	310.50	309.60	36.014	309.60	36.172
335	309.60	308.70	308.40	35.959	308.40	36.209
336	308.40	307.30	306.40	36.015	306.40	36.322
337	306.40	305.90	304.40	36.177	304.40	36.317
338	304.40	303.40	302.80	36.149	302.80	36.339
339	302.80	302.60	301.80	36.251	301.80	36.437
340	301.80	301.20	300.70	36.206	300.70	36.464
341	300.70	300.20	299.90	36.315	299.90	36.467
342	299.90	299.40	298.10	36.244	298.10	36.511
343	298.10	297.10	296.60	36.236	296.60	36.541
344	296.60	295.30	294.60	36.328	294.60	36.611
345	294.60	293.50	292.40	36.445	292.40	36.635
346	292.40	291.50	290.90	36.384	290.90	36.662
347	290.90	290.50	289.80	36.443	289.80	36.585
348	289.80	289.30	287.80	36.348	287.80	36.763
349	287.80	286.80	285.60	36.589	285.60	36.768
350	285.60	284.60	284.20	36.655	284.20	36.847
351	284.20	283.60	282.30	36.656	282.30	36.824
352	282.30	281.60	281.10	36.737	281.10	36.983
353	281.10	280.00	278.90	36.660	278.90	37.100
354	278.90	278.40	277.90	36.853	277.90	37.000
355	277.90	277.30	276.70	36.858	276.70	36.965
356	276.70	276.40	275.90	36.858	275.90	37.094
357	275.90	274.60	273.40	36.786	273.40	36.925
358	273.40	272.50	272.20	36.666	272.20	36.802
359	272.20	271.60	271.20	36.634	271.20	36.789
360	271.20	270.70	270.30	36.567	270.30	36.699
361	270.30	268.70	267.80	36.188	267.80	36.313
362	267.80	267.40	267.10	36.128	267.10	36.207
363	267.10	260.10	259.80	34.845	259.80	35.045
364	259.80	257.10	256.70	34.231	256.70	34.480
365	256.70	254.90	254.30	33.940	254.30	34.039
366	254.30	250.70	250.30	33.328	250.30	33.415
367	250.30	250.00	249.60	33.219	249.60	33.371
368	249.60	249.10	248.70	33.075	248.70	33.286
369	248.70	247.40	247.10	33.011	247.10	33.098
370	247.10	245.80	245.60	32.919	245.60	32.975
371	245.60	242.40	242.10	32.576	242.10	32.672
372	242.10	241.80	241.20	32.603	241.20	32.708
373	241.20	240.40	240.10	32.447	240.10	32.528
374	240.10	239.50	238.70	32.299	238.70	32.563
375	238.70	237.60	237.10	32.277	237.10	32.416
376	237.10	236.60	236.10	32.202	236.10	32.318
377	236.10	235.70	233.70	32.177	233.70	32.317
378	233.70	231.90	231.10	32.092	231.10	32.298
379	231.10	229.80	228.90	32.036	228.90	32.250
380	228.90	228.10	227.90	32.125	227.90	32.219
381	227.90	227.30	226.80	32.093	226.80	32.286
382	226.80	226.30	225.10	32.194	225.10	32.271
383	225.10	224.40	223.90	32.139	223.90	32.345
384	223.90	223.40	222.80	32.091	222.80	32.346
385	222.80	222.00	221.20	32.155	221.20	32.279
386	221.20	220.50	219.60	32.078	219.60	32.206
387	219.60	218.60	217.70	31.970	217.70	32.210
388	217.70	217.00	216.50	31.967	216.50	32.137
389	216.50	216.00	215.60	31.895	215.60	32.049
390	215.60	214.10	213.80	31.607	213.80	31.796
391	213.80	212.00	211.70	31.279	211.70	31.472
392	211.70	211.20	210.80	31.302	210.80	31.418
393	210.80	210.20	209.30	31.155	209.30	31.418
394	209.30	208.80	208.30	30.943	208.30	31.238
395	208.30	207.50	207.10	30.744	207.10	30.942
396	207.10	206.50	205.20	30.671	205.20	30.903
397	205.20	204.90	204.50	30.749	204.50	30.879
398	204.50	203.90	203.30	30.335	203.30	30.764
399	203.30	203.00	202.70	30.542	202.70	30.783
400	202.70	202.20	201.90	30.601	201.90	30.789
401	201.90	201.20	200.00	30.434	200.00	30.553

ﾃﾞｰﾀﾘｽﾄ
nm	%R
900.00	89.305
899.90	89.642
899.80	90.512
899.70	91.547
899.60	92.131
899.50	92.863
899.40	93.313
899.30	93.605
899.20	92.228
899.10	90.958
899.00	90.452
898.90	90.347
898.80	89.948
898.70	90.186
898.60	90.628
898.50	91.217
898.40	92.192
898.30	92.190
898.20	91.849
898.10	91.387
898.00	91.579
897.90	92.741
897.80	92.840
897.70	92.620
897.60	92.596
897.50	91.765
897.40	91.692
897.30	91.328
897.20	90.374
897.10	89.821
897.00	89.935
896.90	89.164
896.80	89.827
896.70	90.508
896.60	90.910
896.50	91.302
896.40	91.341
896.30	91.840
896.20	91.994
896.10	91.774
896.00	92.235
895.90	92.164
895.80	92.728
895.70	91.822
895.60	90.606
895.50	89.018
895.40	87.933
895.30	88.645
895.20	89.712
895.10	89.686
895.00	90.595
894.90	92.060
894.80	92.642
894.70	92.862
894.60	92.502
894.50	91.577
894.40	91.377
894.30	90.559
894.20	88.987
894.10	88.696
894.00	88.377
893.90	89.905
893.80	92.525
893.70	91.794
893.60	91.087
893.50	90.582
893.40	90.734
893.30	91.369
893.20	91.662
893.10	92.675
893.00	93.527
892.90	94.199
892.80	94.455
892.70	93.680
892.60	92.533
892.50	91.312
892.40	91.560
892.30	90.899
892.20	90.598
892.10	90.699
892.00	91.338
891.90	91.375
891.80	91.530
891.70	92.737
891.60	92.682
891.50	91.530
891.40	91.686
891.30	91.660
891.20	91.707
891.10	92.351
891.00	91.758
890.90	90.293
890.80	89.324
890.70	89.028
890.60	89.362
890.50	89.536
890.40	90.098
890.30	92.239
890.20	93.278
890.10	93.479
890.00	93.390
889.90	93.336
889.80	92.148
889.70	92.603
889.60	92.232
889.50	92.175
889.40	91.335
889.30	90.111
889.20	89.623
889.10	90.206
889.00	90.749
888.90	92.468
888.80	93.758
888.70	93.803
888.60	93.248
888.50	91.396
888.40	88.621
888.30	88.446
888.20	88.342
888.10	90.113
888.00	91.917
887.90	92.766
887.80	93.345
887.70	92.532
887.60	90.548
887.50	88.100
887.40	86.601
887.30	86.846
887.20	87.625
887.10	89.912
887.00	91.542
886.90	93.655
886.80	93.722
886.70	94.209
886.60	94.372
886.50	94.413
886.40	93.239
886.30	91.646
886.20	90.980
886.10	89.800
886.00	88.693
885.90	88.682
885.80	87.305
885.70	88.323
885.60	90.965
885.50	92.385
885.40	92.931
885.30	93.075
885.20	93.297
885.10	93.594
885.00	92.467
884.90	91.744
884.80	91.046
884.70	90.527
884.60	91.106
884.50	92.231
884.40	91.849
884.30	91.398
884.20	91.412
884.10	91.314
884.00	90.811
883.90	90.225
883.80	90.230
883.70	90.320
883.60	90.354
883.50	90.720
883.40	90.701
883.30	91.034
883.20	92.013
883.10	92.655
883.00	93.598
882.90	93.493
882.80	93.348
882.70	93.223
882.60	92.771
882.50	92.223
882.40	90.820
882.30	89.866
882.20	90.765
882.10	90.893
882.00	91.146
881.90	92.086
881.80	93.245
881.70	92.703
881.60	92.743
881.50	90.947
881.40	91.050
881.30	91.048
881.20	91.912
881.10	93.821
881.00	94.515
880.90	94.488
880.80	93.891
880.70	92.956
880.60	91.388
880.50	90.279
880.40	88.570
880.30	89.135
880.20	90.337
880.10	89.464
880.00	88.951
879.90	89.226
879.80	88.790
879.70	89.417
879.60	90.367
879.50	91.411
879.40	91.622
879.30	92.839
879.20	93.253
879.10	94.108
879.00	91.797
878.90	91.800
878.80	92.133
878.70	91.928
878.60	91.533
878.50	92.397
878.40	92.353
878.30	92.547
878.20	93.020
878.10	93.759
878.00	94.216
877.90	94.310
877.80	93.687
877.70	93.261
877.60	92.567
877.50	92.219
877.40	92.479
877.30	92.799
877.20	92.863
877.10	92.501
877.00	92.948
876.90	93.072
876.80	91.664
876.70	91.618
876.60	92.251
876.50	92.714
876.40	92.890
876.30	92.715
876.20	92.212
876.10	90.834
876.00	90.792
875.90	91.148
875.80	90.649
875.70	89.684
875.60	90.471
875.50	91.142
875.40	90.629
875.30	91.147
875.20	91.998
875.10	92.637
875.00	92.754
874.90	93.840
874.80	94.506
874.70	94.015
874.60	93.188
874.50	93.504
874.40	92.387
874.30	92.281
874.20	92.857
874.10	94.039
874.00	94.364
873.90	95.676
873.80	95.380
873.70	95.028
873.60	93.919
873.50	93.786
873.40	93.459
873.30	93.516
873.20	92.038
873.10	92.223
873.00	92.031
872.90	91.572
872.80	91.425
872.70	91.712
872.60	92.592
872.50	92.958
872.40	92.410
872.30	91.714
872.20	90.720
872.10	90.387
872.00	90.460
871.90	92.063
871.80	92.124
871.70	92.386
871.60	92.498
871.50	91.695
871.40	92.163
871.30	92.137
871.20	92.945
871.10	92.803
871.00	92.689
870.90	92.610
870.80	92.002
870.70	90.836
870.60	89.671
870.50	91.029
870.40	91.211
870.30	91.371
870.20	91.496
870.10	90.323
870.00	91.569
869.90	92.227
869.80	93.099
869.70	93.552
869.60	94.185
869.50	94.838
869.40	94.833
869.30	93.213
869.20	91.151
869.10	90.852
869.00	89.775
868.90	89.450
868.80	90.023
868.70	90.349
868.60	90.762
868.50	91.560
868.40	91.643
868.30	90.518
868.20	89.828
868.10	89.237
868.00	89.410
867.90	89.628
867.80	91.040
867.70	91.387
867.60	91.236
867.50	90.511
867.40	90.943
867.30	92.069
867.20	91.912
867.10	92.566
867.00	92.525
866.90	91.764
866.80	92.035
866.70	91.835
866.60	92.119
866.50	93.135
866.40	94.079
866.30	95.582
866.20	96.231
866.10	96.145
866.00	95.269
865.90	94.336
865.80	93.212
865.70	93.480
865.60	94.399
865.50	94.733
865.40	94.744
865.30	93.715
865.20	94.599
865.10	94.182
865.00	92.620
864.90	93.416
864.80	92.823
864.70	94.545
864.60	95.055
864.50	95.693
864.40	95.475
864.30	94.798
864.20	93.843
864.10	93.277
864.00	92.760
863.90	92.210
863.80	92.677
863.70	93.378
863.60	93.363
863.50	94.553
863.40	93.557
863.30	93.353
863.20	92.528
863.10	89.983
863.00	89.712
862.90	89.835
862.80	91.391
862.70	92.215
862.60	93.229
862.50	94.246
862.40	94.604
862.30	95.444
862.20	95.179
862.10	94.562
862.00	93.772
861.90	93.685
861.80	94.262
861.70	93.452
861.60	92.760
861.50	91.422
861.40	91.424
861.30	91.557
861.20	90.765
861.10	89.970
861.00	90.004
860.90	91.544
860.80	92.588
860.70	92.667
860.60	93.089
860.50	92.482
860.40	92.162
860.30	92.000
860.20	91.531
860.10	90.663
860.00	92.128
859.90	93.929
859.80	96.146
859.70	96.586
859.60	95.468
859.50	95.360
859.40	93.668
859.30	91.440
859.20	91.776
859.10	91.465
859.00	92.656
858.90	94.191
858.80	96.049
858.70	95.993
858.60	95.536
858.50	95.115
858.40	94.657
858.30	94.331
858.20	92.866
858.10	92.847
858.00	92.125
857.90	91.044
857.80	91.014
857.70	90.859
857.60	91.140
857.50	91.011
857.40	92.120
857.30	92.394
857.20	90.729
857.10	90.447
857.00	89.758
856.90	91.357
856.80	91.531
856.70	92.386
856.60	92.605
856.50	92.884
856.40	92.781
856.30	92.018
856.20	92.385
856.10	91.421
856.00	92.097
855.90	93.310
855.80	94.744
855.70	95.270
855.60	94.422
855.50	94.840
855.40	94.857
855.30	95.028
855.20	93.714
855.10	92.690
855.00	91.651
854.90	91.439
854.80	93.586
854.70	94.344
854.60	94.570
854.50	94.720
854.40	95.356
854.30	95.080
854.20	93.757
854.10	92.737
854.00	92.157
853.90	92.915
853.80	93.194
853.70	94.062
853.60	93.398
853.50	93.195
853.40	93.555
853.30	92.493
853.20	92.017
853.10	92.372
853.00	93.651
852.90	93.807
852.80	94.584
852.70	94.772
852.60	93.377
852.50	93.699
852.40	92.943
852.30	92.423
852.20	92.118
852.10	92.769
852.00	93.032
851.90	92.931
851.80	92.465
851.70	92.073
851.60	92.804
851.50	92.696
851.40	93.744
851.30	94.407
851.20	93.319
851.10	93.560
851.00	92.503
850.90	91.774
850.80	91.451
850.70	91.197
850.60	91.344
850.50	93.231
850.40	93.404
850.30	93.568
850.20	93.635
850.10	93.522
850.00	92.720
849.90	92.434
849.80	91.733
849.70	91.634
849.60	91.751
849.50	92.162
849.40	92.484
849.30	91.204
849.20	91.784
849.10	92.682
849.00	93.761
848.90	93.700
848.80	94.057
848.70	94.441
848.60	93.808
848.50	93.673
848.40	93.069
848.30	92.478
848.20	92.651
848.10	93.428
848.00	95.031
847.90	94.744
847.80	95.199
847.70	95.522
847.60	96.953
847.50	96.375
847.40	96.627
847.30	96.809
847.20	96.731
847.10	96.028
847.00	94.746
846.90	93.902
846.80	92.822
846.70	92.488
846.60	92.961
846.50	92.343
846.40	91.369
846.30	90.825
846.20	90.762
846.10	90.537
846.00	90.495
845.90	91.919
845.80	93.364
845.70	94.803
845.60	94.488
845.50	93.898
845.40	93.168
845.30	92.516
845.20	92.760
845.10	93.098
845.00	93.963
844.90	93.940
844.80	93.828
844.70	93.977
844.60	93.646
844.50	93.299
844.40	92.984
844.30	94.034
844.20	94.651
844.10	94.635
844.00	94.730
843.90	93.822
843.80	93.344
843.70	92.841
843.60	93.179
843.50	92.273
843.40	92.160
843.30	92.400
843.20	93.077
843.10	94.083
843.00	94.426
842.90	95.583
842.80	96.474
842.70	96.382
842.60	95.495
842.50	94.602
842.40	92.873
842.30	92.111
842.20	93.170
842.10	93.878
842.00	95.080
841.90	94.919
841.80	94.216
841.70	93.290
841.60	92.228
841.50	91.959
841.40	91.723
841.30	92.276
841.20	92.805
841.10	93.993
841.00	94.126
840.90	93.088
840.80	92.323
840.70	92.230
840.60	92.555
840.50	93.486
840.40	93.503
840.30	93.252
840.20	94.007
840.10	94.910
840.00	94.519
839.90	94.027
839.80	93.584
839.70	94.302
839.60	95.645
839.50	95.362
839.40	95.138
839.30	95.645
839.20	95.497
839.10	95.919
839.00	94.742
838.90	94.052
838.80	93.969
838.70	95.011
838.60	95.916
838.50	95.524
838.40	94.393
838.30	95.087
838.20	95.194
838.10	94.296
838.00	94.311
837.90	94.401
837.80	94.302
837.70	94.254
837.60	93.917
837.50	93.786
837.40	93.130
837.30	93.193
837.20	94.122
837.10	94.875
837.00	95.446
836.90	96.042
836.80	95.175
836.70	94.726
836.60	95.412
836.50	94.794
836.40	94.392
836.30	93.797
836.20	93.678
836.10	94.339
836.00	94.356
835.90	94.628
835.80	95.093
835.70	95.233
835.60	95.870
835.50	95.338
835.40	94.397
835.30	93.977
835.20	94.157
835.10	93.279
835.00	93.576
834.90	93.780
834.80	94.270
834.70	94.817
834.60	94.940
834.50	95.362
834.40	96.379
834.30	97.063
834.20	96.741
834.10	96.016
834.00	95.161
833.90	94.756
833.80	95.080
833.70	94.506
833.60	94.770
833.50	95.229
833.40	94.954
833.30	94.361
833.20	93.740
833.10	93.593
833.00	94.708
832.90	96.020
832.80	96.093
832.70	97.261
832.60	96.957
832.50	95.104
832.40	94.435
832.30	92.663
832.20	92.239
832.10	92.097
832.00	92.057
831.90	92.789
831.80	93.765
831.70	93.993
831.60	94.277
831.50	94.735
831.40	94.055
831.30	95.024
831.20	95.684
831.10	94.470
831.00	94.705
830.90	94.303
830.80	95.163
830.70	94.659
830.60	94.492
830.50	94.762
830.40	95.457
830.30	95.742
830.20	95.325
830.10	95.019
830.00	93.456
829.90	93.702
829.80	94.044
829.70	94.504
829.60	95.461
829.50	95.733
829.40	97.106
829.30	97.197
829.20	97.220
829.10	97.093
829.00	96.019
828.90	95.584
828.80	95.631
828.70	95.119
828.60	94.346
828.50	94.410
828.40	95.095
828.30	96.020
828.20	96.476
828.10	96.081
828.00	95.816
827.90	94.851
827.80	93.475
827.70	93.645
827.60	93.339
827.50	93.736
827.40	94.692
827.30	95.435
827.20	96.186
827.10	95.627
827.00	96.210
826.90	95.429
826.80	94.128
826.70	93.859
826.60	93.491
826.50	93.387
826.40	93.373
826.30	94.070
826.20	94.459
826.10	94.852
826.00	94.940
825.90	94.600
825.80	94.399
825.70	94.423
825.60	95.837
825.50	96.802
825.40	97.086
825.30	97.904
825.20	97.693
825.10	97.005
825.00	96.176
824.90	94.963
824.80	94.683
824.70	94.429
824.60	95.391
824.50	96.280
824.40	96.555
824.30	96.774
824.20	96.528
824.10	96.536
824.00	96.008
823.90	95.425
823.80	94.821
823.70	94.908
823.60	95.056
823.50	94.844
823.40	95.730
823.30	95.788
823.20	96.345
823.10	96.372
823.00	95.752
822.90	95.269
822.80	94.733
822.70	94.353
822.60	94.970
822.50	95.833
822.40	95.815
822.30	95.994
822.20	95.208
822.10	93.815
822.00	93.529
821.90	93.183
821.80	93.658
821.70	94.416
821.60	94.909
821.50	95.506
821.40	95.896
821.30	94.879
821.20	94.518
821.10	94.713
821.00	94.894
820.90	96.100
820.80	97.312
820.70	97.503
820.60	98.025
820.50	97.580
820.40	96.923
820.30	96.935
820.20	97.027
820.10	96.859
820.00	97.015
819.90	96.444
819.80	96.408
819.70	96.215
819.60	95.834
819.50	95.688
819.40	95.538
819.30	95.026
819.20	95.252
819.10	94.764
819.00	93.820
818.90	93.606
818.80	94.194
818.70	94.712
818.60	95.063
818.50	95.168
818.40	95.094
818.30	95.314
818.20	95.644
818.10	95.425
818.00	94.746
817.90	94.467
817.80	94.603
817.70	94.811
817.60	94.617
817.50	94.963
817.40	95.378
817.30	95.817
817.20	95.994
817.10	96.395
817.00	96.065
816.90	96.298
816.80	97.054
816.70	96.788
816.60	96.418
816.50	95.721
816.40	94.926
816.30	94.389
816.20	93.695
816.10	93.101
816.00	93.240
815.90	93.618
815.80	94.008
815.70	95.045
815.60	95.355
815.50	95.661
815.40	95.861
815.30	95.739
815.20	95.344
815.10	95.039
815.00	96.029
814.90	96.218
814.80	96.592
814.70	96.401
814.60	96.222
814.50	96.482
814.40	95.979
814.30	96.560
814.20	96.575
814.10	96.726
814.00	96.689
813.90	96.503
813.80	95.544
813.70	94.962
813.60	95.933
813.50	96.089
813.40	96.284
813.30	96.563
813.20	96.878
813.10	96.740
813.00	95.857
812.90	95.605
812.80	95.431
812.70	95.871
812.60	96.327
812.50	96.722
812.40	97.216
812.30	96.683
812.20	96.255
812.10	96.373
812.00	96.105
811.90	96.371
811.80	97.088
811.70	97.265
811.60	97.043
811.50	96.559
811.40	95.196
811.30	94.660
811.20	94.062
811.10	93.964
811.00	94.684
810.90	95.370
810.80	96.318
810.70	96.652
810.60	96.400
810.50	96.152
810.40	95.935
810.30	95.537
810.20	95.640
810.10	96.325
810.00	96.598
809.90	96.432
809.80	96.719
809.70	96.929
809.60	96.505
809.50	95.947
809.40	96.602
809.30	96.866
809.20	97.249
809.10	96.540
809.00	96.090
808.90	94.906
808.80	94.484
808.70	95.003
808.60	96.001
808.50	96.243
808.40	96.800
808.30	97.333
808.20	96.946
808.10	96.392
808.00	96.114
807.90	96.128
807.80	96.655
807.70	96.532
807.60	96.532
807.50	96.145
807.40	96.375
807.30	97.028
807.20	97.085
807.10	97.298
807.00	97.331
806.90	96.853
806.80	96.440
806.70	95.996
806.60	95.351
806.50	95.191
806.40	94.728
806.30	95.524
806.20	96.161
806.10	96.338
806.00	96.673
805.90	96.503
805.80	96.353
805.70	96.456
805.60	96.330
805.50	95.964
805.40	96.398
805.30	96.504
805.20	96.537
805.10	97.076
805.00	96.398
804.90	96.313
804.80	96.563
804.70	96.848
804.60	97.090
804.50	96.872
804.40	97.209
804.30	96.962
804.20	96.115
804.10	95.799
804.00	95.184
803.90	95.108
803.80	95.458
803.70	96.486
803.60	97.314
803.50	97.926
803.40	98.384
803.30	98.425
803.20	97.493
803.10	96.975
803.00	96.341
802.90	95.509
802.80	95.420
802.70	96.457
802.60	96.429
802.50	97.277
802.40	97.790
802.30	98.130
802.20	97.954
802.10	97.860
802.00	97.398
801.90	96.912
801.80	96.509
801.70	96.917
801.60	96.810
801.50	96.593
801.40	96.896
801.30	97.414
801.20	97.294
801.10	97.682
801.00	97.375
800.90	97.113
800.80	96.857
800.70	96.873
800.60	96.723
800.50	96.158
800.40	95.656
800.30	95.671
800.20	95.562
800.10	95.205
800.00	95.059
799.90	95.245
799.80	96.002
799.70	96.652
799.60	96.703
799.50	97.127
799.40	97.181
799.30	97.583
799.20	97.508
799.10	97.384
799.00	97.137
798.90	97.053
798.80	97.107
798.70	96.940
798.60	97.033
798.50	96.839
798.40	97.522
798.30	97.373
798.20	96.927
798.10	96.875
798.00	96.648
797.90	96.392
797.80	95.910
797.70	95.796
797.60	96.444
797.50	96.800
797.40	96.675
797.30	96.290
797.20	96.552
797.10	96.270
797.00	96.419
796.90	95.807
796.80	95.880
796.70	96.193
796.60	96.733
796.50	96.876
796.40	96.934
796.30	97.038
796.20	97.358
796.10	97.284
796.00	96.856
795.90	96.307
795.80	96.314
795.70	96.474
795.60	97.182
795.50	96.988
795.40	96.985
795.30	97.109
795.20	97.261
795.10	97.276
795.00	97.081
794.90	97.233
794.80	97.125
794.70	97.242
794.60	97.392
794.50	97.224
794.40	96.694
794.30	96.522
794.20	97.128
794.10	97.213
794.00	96.836
793.90	96.560
793.80	96.897
793.70	97.010
793.60	96.924
793.50	97.015
793.40	96.522
793.30	96.558
793.20	97.388
793.10	97.818
793.00	97.304
792.90	96.976
792.80	96.624
792.70	96.522
792.60	96.380
792.50	96.047
792.40	96.707
792.30	96.974
792.20	97.478
792.10	97.878
792.00	97.974
791.90	97.296
791.80	97.006
791.70	96.987
791.60	96.745
791.50	96.555
791.40	96.136
791.30	96.564
791.20	96.663
791.10	97.013
791.00	97.507
790.90	97.232
790.80	97.564
790.70	97.444
790.60	97.653
790.50	97.164
790.40	96.729
790.30	96.680
790.20	97.118
790.10	97.240
790.00	97.205
789.90	97.883
789.80	97.441
789.70	97.232
789.60	96.768
789.50	96.085
789.40	96.149
789.30	96.173
789.20	96.205
789.10	96.360
789.00	96.609
788.90	97.007
788.80	97.485
788.70	97.356
788.60	97.170
788.50	97.290
788.40	97.102
788.30	96.973
788.20	96.730
788.10	97.073
788.00	97.616
787.90	97.887
787.80	97.871
787.70	97.514
787.60	96.786
787.50	96.542
787.40	96.360
787.30	96.470
787.20	96.432
787.10	96.605
787.00	96.807
786.90	97.403
786.80	97.496
786.70	97.849
786.60	98.196
786.50	97.964
786.40	97.977
786.30	98.036
786.20	97.798
786.10	97.599
786.00	97.564
785.90	97.832
785.80	97.783
785.70	97.647
785.60	97.134
785.50	97.253
785.40	97.826
785.30	98.031
785.20	97.935
785.10	97.278
785.00	96.624
784.90	96.449
784.80	96.431
784.70	96.180
784.60	96.399
784.50	96.749
784.40	97.452
784.30	97.905
784.20	97.592
784.10	97.308
784.00	97.809
783.90	98.126
783.80	98.324
783.70	98.191
783.60	98.236
783.50	98.090
783.40	97.901
783.30	97.338
783.20	97.256
783.10	96.820
783.00	96.712
782.90	96.896
782.80	96.954
782.70	96.895
782.60	97.255
782.50	97.377
782.40	97.322
782.30	97.200
782.20	97.468
782.10	97.610
782.00	97.444
781.90	97.322
781.80	97.194
781.70	96.924
781.60	96.923
781.50	97.177
781.40	96.976
781.30	97.078
781.20	97.074
781.10	97.304
781.00	96.857
780.90	96.949
780.80	97.214
780.70	97.219
780.60	97.418
780.50	97.620
780.40	97.425
780.30	97.422
780.20	97.559
780.10	97.983
780.00	97.864
779.90	98.323
779.80	98.151
779.70	97.860
779.60	97.088
779.50	96.480
779.40	96.644
779.30	96.415
779.20	97.130
779.10	97.631
779.00	97.953
778.90	98.201
778.80	98.080
778.70	97.611
778.60	97.113
778.50	97.069
778.40	96.862
778.30	97.017
778.20	97.133
778.10	97.304
778.00	97.662
777.90	97.571
777.80	97.661
777.70	97.991
777.60	97.896
777.50	97.709
777.40	97.539
777.30	97.571
777.20	97.870
777.10	98.007
777.00	98.051
776.90	98.101
776.80	97.495
776.70	97.520
776.60	97.635
776.50	97.378
776.40	97.235
776.30	97.738
776.20	98.145
776.10	98.191
776.00	97.764
775.90	97.601
775.80	97.402
775.70	96.861
775.60	96.969
775.50	97.565
775.40	97.545
775.30	98.053
775.20	98.402
775.10	98.552
775.00	98.013
774.90	97.951
774.80	98.068
774.70	98.069
774.60	97.908
774.50	98.314
774.40	98.664
774.30	98.608
774.20	98.375
774.10	98.229
774.00	98.016
773.90	98.199
773.80	98.066
773.70	98.068
773.60	97.585
773.50	97.234
773.40	97.107
773.30	97.178
773.20	97.304
773.10	97.628
773.00	98.002
772.90	98.186
772.80	98.446
772.70	98.287
772.60	97.906
772.50	97.710
772.40	97.653
772.30	97.667
772.20	97.976
772.10	97.970
772.00	97.988
771.90	97.916
771.80	98.111
771.70	98.165
771.60	98.345
771.50	98.189
771.40	98.193
771.30	97.995
771.20	97.660
771.10	97.390
771.00	97.522
770.90	97.750
770.80	98.128
770.70	98.384
770.60	98.540
770.50	98.785
770.40	99.080
770.30	99.001
770.20	98.579
770.10	98.076
770.00	97.797
769.90	97.414
769.80	97.116
769.70	96.738
769.60	96.927
769.50	97.259
769.40	97.717
769.30	98.218
769.20	98.324
769.10	98.071
769.00	97.796
768.90	97.477
768.80	97.368
768.70	97.102
768.60	96.903
768.50	97.075
768.40	97.747
768.30	98.171
768.20	98.440
768.10	98.311
768.00	97.840
767.90	97.711
767.80	97.473
767.70	97.236
767.60	96.806
767.50	96.605
767.40	96.891
767.30	97.118
767.20	97.375
767.10	97.304
767.00	97.464
766.90	97.493
766.80	97.340
766.70	97.013
766.60	96.962
766.50	97.305
766.40	97.773
766.30	98.180
766.20	98.330
766.10	98.159
766.00	97.971
765.90	97.628
765.80	97.567
765.70	97.205
765.60	97.276
765.50	97.581
765.40	97.455
765.30	97.507
765.20	97.615
765.10	97.669
765.00	98.031
764.90	98.285
764.80	98.417
764.70	98.601
764.60	98.577
764.50	98.507
764.40	98.486
764.30	98.465
764.20	98.536
764.10	98.743
764.00	98.500
763.90	98.238
763.80	97.998
763.70	97.711
763.60	97.693
763.50	97.695
763.40	97.647
763.30	97.964
763.20	98.072
763.10	98.195
763.00	98.101
762.90	98.100
762.80	97.886
762.70	97.994
762.60	98.324
762.50	98.556
762.40	98.356
762.30	98.186
762.20	98.211
762.10	98.206
762.00	98.148
761.90	97.932
761.80	97.721
761.70	97.534
761.60	97.406
761.50	97.174
761.40	97.119
761.30	97.172
761.20	97.696
761.10	98.141
761.00	98.343
760.90	98.223
760.80	98.025
760.70	97.780
760.60	97.662
760.50	97.556
760.40	97.425
760.30	97.387
760.20	97.631
760.10	97.863
760.00	97.920
759.90	97.496
759.80	97.719
759.70	97.580
759.60	97.639
759.50	97.714
759.40	97.881
759.30	98.001
759.20	98.332
759.10	98.546
759.00	98.555
758.90	98.412
758.80	98.151
758.70	98.082
758.60	97.730
758.50	97.399
758.40	97.563
758.30	97.732
758.20	97.936
758.10	97.772
758.00	97.703
757.90	97.604
757.80	97.474
757.70	97.170
757.60	97.103
757.50	97.272
757.40	97.716
757.30	98.144
757.20	98.009
757.10	97.973
757.00	97.784
756.90	97.462
756.80	97.448
756.70	97.097
756.60	96.975
756.50	97.079
756.40	97.429
756.30	97.735
756.20	97.923
756.10	97.961
756.00	98.266
755.90	98.284
755.80	98.122
755.70	98.146
755.60	97.800
755.50	97.469
755.40	97.231
755.30	97.235
755.20	97.609
755.10	97.845
755.00	98.043
754.90	98.194
754.80	98.355
754.70	97.979
754.60	97.833
754.50	97.656
754.40	97.524
754.30	97.850
754.20	98.131
754.10	98.484
754.00	98.543
753.90	98.578
753.80	98.339
753.70	97.866
753.60	97.544
753.50	97.484
753.40	97.683
753.30	97.824
753.20	98.017
753.10	98.244
753.00	97.831
752.90	97.423
752.80	97.221
752.70	96.956
752.60	96.976
752.50	97.321
752.40	97.585
752.30	97.783
752.20	98.082
752.10	98.203
752.00	98.020
751.90	98.100
751.80	98.200
751.70	98.288
751.60	98.176
751.50	98.021
751.40	98.267
751.30	98.624
751.20	98.509
751.10	98.336
751.00	98.327
750.90	98.066
750.80	97.819
750.70	97.773
750.60	97.827
750.50	97.977
750.40	98.187
750.30	98.139
750.20	98.395
750.10	98.050
750.00	98.014
749.90	98.196
749.80	97.983
749.70	97.832
749.60	97.975
749.50	97.914
749.40	97.848
749.30	97.823
749.20	97.828
749.10	97.827
749.00	97.918
748.90	97.652
748.80	97.823
748.70	97.710
748.60	97.765
748.50	97.800
748.40	98.141
748.30	98.189
748.20	98.326
748.10	98.234
748.00	98.423
747.90	98.570
747.80	98.403
747.70	98.216
747.60	98.119
747.50	98.044
747.40	98.219
747.30	98.594
747.20	98.853
747.10	98.818
747.00	98.645
746.90	98.523
746.80	98.353
746.70	98.053
746.60	98.050
746.50	98.511
746.40	98.886
746.30	99.119
746.20	98.962
746.10	98.602
746.00	98.149
745.90	97.904
745.80	97.932
745.70	98.313
745.60	98.565
745.50	98.937
745.40	99.059
745.30	98.970
745.20	98.746
745.10	98.486
745.00	98.480
744.90	98.426
744.80	98.375
744.70	98.627
744.60	98.778
744.50	98.895
744.40	98.776
744.30	98.831
744.20	99.000
744.10	99.282
744.00	99.281
743.90	99.338
743.80	99.257
743.70	98.994
743.60	99.262
743.50	99.355
743.40	99.225
743.30	99.245
743.20	99.223
743.10	99.158
743.00	99.043
742.90	98.911
742.80	98.843
742.70	98.983
742.60	98.858
742.50	99.078
742.40	99.178
742.30	98.983
742.20	99.176
742.10	99.693
742.00	99.844
741.90	99.709
741.80	99.417
741.70	98.989
741.60	98.540
741.50	98.122
741.40	98.255
741.30	98.234
741.20	98.405
741.10	98.850
741.00	99.182
740.90	98.955
740.80	98.700
740.70	98.846
740.60	98.821
740.50	98.932
740.40	98.894
740.30	98.742
740.20	98.612
740.10	98.453
740.00	98.563
739.90	98.442
739.80	98.281
739.70	98.356
739.60	98.491
739.50	98.589
739.40	98.293
739.30	98.071
739.20	97.771
739.10	97.959
739.00	98.105
738.90	98.150
738.80	98.423
738.70	98.653
738.60	98.615
738.50	98.770
738.40	98.661
738.30	98.335
738.20	98.192
738.10	98.238
738.00	98.282
737.90	98.232
737.80	98.381
737.70	98.436
737.60	98.361
737.50	98.189
737.40	98.310
737.30	98.124
737.20	98.041
737.10	97.929
737.00	98.089
736.90	98.027
736.80	98.075
736.70	97.860
736.60	97.703
736.50	97.503
736.40	97.503
736.30	97.627
736.20	97.946
736.10	98.279
736.00	98.790
735.90	98.855
735.80	99.054
735.70	98.798
735.60	98.456
735.50	98.106
735.40	98.028
735.30	98.073
735.20	98.093
735.10	98.172
735.00	98.201
734.90	98.251
734.80	98.305
734.70	98.281
734.60	98.227
734.50	98.223
734.40	98.158
734.30	98.253
734.20	98.131
734.10	98.131
734.00	98.167
733.90	98.344
733.80	98.492
733.70	98.579
733.60	98.622
733.50	98.681
733.40	98.559
733.30	98.284
733.20	98.031
733.10	97.920
733.00	97.711
732.90	97.728
732.80	97.547
732.70	97.537
732.60	97.660
732.50	97.783
732.40	97.713
732.30	97.768
732.20	97.733
732.10	97.885
732.00	97.851
731.90	97.910
731.80	97.826
731.70	97.961
731.60	98.034
731.50	98.269
731.40	98.289
731.30	98.151
731.20	98.321
731.10	98.298
731.00	98.058
730.90	98.085
730.80	98.138
730.70	98.097
730.60	97.942
730.50	98.077
730.40	98.249
730.30	98.272
730.20	98.325
730.10	98.204
730.00	97.918
729.90	97.739
729.80	97.774
729.70	97.841
729.60	97.900
729.50	97.879
729.40	98.059
729.30	98.053
729.20	97.940
729.10	98.157
729.00	98.609
728.90	98.750
728.80	99.095
728.70	98.849
728.60	98.662
728.50	98.387
728.40	98.044
728.30	97.958
728.20	98.280
728.10	98.239
728.00	98.259
727.90	98.052
727.80	97.899
727.70	97.825
727.60	97.710
727.50	97.869
727.40	98.031
727.30	97.878
727.20	97.868
727.10	97.747
727.00	97.409
726.90	97.131
726.80	97.164
726.70	97.359
726.60	97.356
726.50	97.404
726.40	97.410
726.30	97.322
726.20	97.241
726.10	97.302
726.00	97.322
725.90	97.477
725.80	97.751
725.70	97.871
725.60	97.891
725.50	97.816
725.40	97.782
725.30	97.731
725.20	97.766
725.10	98.034
725.00	98.055
724.90	98.048
724.80	97.965
724.70	97.737
724.60	97.421
724.50	97.336
724.40	97.755
724.30	97.875
724.20	98.102
724.10	98.295
724.00	98.692
723.90	98.496
723.80	98.441
723.70	98.405
723.60	98.177
723.50	98.104
723.40	97.863
723.30	97.705
723.20	97.715
723.10	97.842
723.00	98.220
722.90	98.184
722.80	98.270
722.70	98.371
722.60	98.339
722.50	98.194
722.40	98.284
722.30	98.459
722.20	98.591
722.10	98.686
722.00	98.602
721.90	98.241
721.80	98.188
721.70	98.145
721.60	98.117
721.50	98.056
721.40	98.193
721.30	98.283
721.20	98.156
721.10	98.124
721.00	98.159
720.90	98.130
720.80	98.148
720.70	98.082
720.60	97.940
720.50	97.789
720.40	97.653
720.30	97.879
720.20	97.941
720.10	98.135
720.00	98.158
719.90	98.318
719.80	98.521
719.70	98.576
719.60	98.517
719.50	98.394
719.40	98.416
719.30	98.454
719.20	98.118
719.10	98.166
719.00	97.934
718.90	98.250
718.80	98.398
718.70	98.471
718.60	98.235
718.50	98.205
718.40	98.238
718.30	98.132
718.20	98.037
718.10	98.074
718.00	98.172
717.90	98.274
717.80	98.230
717.70	98.361
717.60	98.318
717.50	98.399
717.40	98.436
717.30	98.175
717.20	98.045
717.10	97.992
717.00	98.076
716.90	98.157
716.80	98.236
716.70	98.540
716.60	98.510
716.50	98.388
716.40	98.216
716.30	97.990
716.20	97.648
716.10	97.471
716.00	97.596
715.90	97.504
715.80	97.622
715.70	97.580
715.60	97.679
715.50	97.621
715.40	97.602
715.30	97.748
715.20	97.677
715.10	97.847
715.00	97.884
714.90	98.042
714.80	97.995
714.70	98.043
714.60	97.905
714.50	97.798
714.40	97.923
714.30	98.027
714.20	98.171
714.10	98.156
714.00	98.197
713.90	98.209
713.80	98.154
713.70	98.268
713.60	98.186
713.50	98.121
713.40	98.070
713.30	98.163
713.20	98.031
713.10	97.786
713.00	97.613
712.90	97.651
712.80	97.564
712.70	97.637
712.60	97.824
712.50	97.899
712.40	97.919
712.30	97.988
712.20	97.957
712.10	97.823
712.00	97.612
711.90	97.415
711.80	97.528
711.70	97.580
711.60	97.687
711.50	97.794
711.40	97.874
711.30	97.848
711.20	97.932
711.10	97.960
711.00	98.012
710.90	97.972
710.80	98.128
710.70	98.325
710.60	98.375
710.50	98.284
710.40	98.234
710.30	97.921
710.20	97.815
710.10	97.565
710.00	97.659
709.90	97.549
709.80	97.655
709.70	97.773
709.60	98.075
709.50	98.083
709.40	98.088
709.30	97.939
709.20	97.901
709.10	97.975
709.00	98.044
708.90	97.830
708.80	97.906
708.70	97.931
708.60	98.078
708.50	98.043
708.40	97.971
708.30	97.766
708.20	97.612
708.10	97.533
708.00	97.696
707.90	97.658
707.80	97.737
707.70	97.948
707.60	98.197
707.50	98.125
707.40	98.020
707.30	97.675
707.20	97.402
707.10	97.316
707.00	97.407
706.90	97.634
706.80	97.905
706.70	98.046
706.60	98.287
706.50	98.157
706.40	97.885
706.30	97.536
706.20	97.404
706.10	97.498
706.00	97.745
705.90	97.934
705.80	98.072
705.70	98.092
705.60	97.941
705.50	97.788
705.40	97.701
705.30	97.669
705.20	97.763
705.10	97.816
705.00	97.970
704.90	98.096
704.80	98.078
704.70	98.050
704.60	97.848
704.50	97.725
704.40	97.721
704.30	97.551
704.20	97.437
704.10	97.519
704.00	97.505
703.90	97.593
703.80	97.732
703.70	97.751
703.60	97.825
703.50	97.882
703.40	97.896
703.30	97.924
703.20	97.917
703.10	98.006
703.00	98.159
702.90	98.098
702.80	98.093
702.70	98.118
702.60	97.884
702.50	97.689
702.40	97.591
702.30	97.571
702.20	97.802
702.10	98.082
702.00	98.157
701.90	98.259
701.80	98.130
701.70	98.082
701.60	98.060
701.50	98.007
701.40	97.952
701.30	98.003
701.20	97.960
701.10	97.887
701.00	97.823
700.90	97.800
700.80	97.677
700.70	97.596
700.60	97.562
700.50	97.821
700.40	97.808
700.30	97.729
700.20	97.743
700.10	97.782
700.00	97.899
699.90	97.996
699.80	97.889
699.70	97.753
699.60	97.635
699.50	97.750
699.40	97.682
699.30	97.592
699.20	97.593
699.10	97.717
699.00	97.863
698.90	98.008
698.80	98.052
698.70	97.937
698.60	98.033
698.50	97.983
698.40	97.750
698.30	97.499
698.20	97.403
698.10	97.518
698.00	97.591
697.90	97.814
697.80	98.157
697.70	98.230
697.60	98.158
697.50	98.160
697.40	98.099
697.30	97.890
697.20	97.833
697.10	97.835
697.00	97.988
696.90	98.029
696.80	98.062
696.70	97.989
696.60	97.863
696.50	97.839
696.40	98.020
696.30	98.194
696.20	98.088
696.10	98.067
696.00	98.088
695.90	98.115
695.80	97.941
695.70	97.826
695.60	97.756
695.50	97.857
695.40	97.945
695.30	97.908
695.20	97.870
695.10	97.976
695.00	98.027
694.90	98.021
694.80	97.913
694.70	97.933
694.60	97.808
694.50	97.727
694.40	97.637
694.30	97.593
694.20	97.512
694.10	97.599
694.00	97.758
693.90	97.673
693.80	97.560
693.70	97.692
693.60	97.778
693.50	97.661
693.40	97.397
693.30	97.396
693.20	97.342
693.10	97.402
693.00	97.717
692.90	97.814
692.80	97.955
692.70	98.027
692.60	98.008
692.50	97.829
692.40	97.706
692.30	97.596
692.20	97.537
692.10	97.652
692.00	97.600
691.90	97.664
691.80	97.620
691.70	97.563
691.60	97.574
691.50	97.383
691.40	97.482
691.30	97.632
691.20	97.661
691.10	97.625
691.00	97.664
690.90	97.627
690.80	97.522
690.70	97.533
690.60	97.500
690.50	97.505
690.40	97.669
690.30	97.718
690.20	97.771
690.10	97.711
690.00	97.614
689.90	97.602
689.80	97.693
689.70	97.785
689.60	97.867
689.50	97.994
689.40	97.990
689.30	97.905
689.20	97.901
689.10	97.821
689.00	97.835
688.90	97.781
688.80	97.799
688.70	97.993
688.60	97.920
688.50	97.897
688.40	97.910
688.30	97.690
688.20	97.573
688.10	97.433
688.00	97.463
687.90	97.483
687.80	97.514
687.70	97.583
687.60	97.617
687.50	97.615
687.40	97.555
687.30	97.614
687.20	97.536
687.10	97.457
687.00	97.513
686.90	97.452
686.80	97.569
686.70	97.410
686.60	97.434
686.50	97.535
686.40	97.646
686.30	97.715
686.20	97.810
686.10	97.776
686.00	97.823
685.90	97.802
685.80	97.728
685.70	97.629
685.60	97.561
685.50	97.541
685.40	97.511
685.30	97.529
685.20	97.610
685.10	97.541
685.00	97.461
684.90	97.393
684.80	97.420
684.70	97.425
684.60	97.644
684.50	97.725
684.40	97.813
684.30	97.815
684.20	97.812
684.10	97.822
684.00	97.719
683.90	97.633
683.80	97.651
683.70	97.645
683.60	97.557
683.50	97.542
683.40	97.612
683.30	97.573
683.20	97.579
683.10	97.538
683.00	97.650
682.90	97.746
682.80	97.600
682.70	97.513
682.60	97.646
682.50	97.618
682.40	97.638
682.30	97.659
682.20	97.571
682.10	97.481
682.00	97.545
681.90	97.501
681.80	97.521
681.70	97.572
681.60	97.593
681.50	97.718
681.40	97.567
681.30	97.444
681.20	97.410
681.10	97.304
681.00	97.332
680.90	97.462
680.80	97.455
680.70	97.412
680.60	97.478
680.50	97.433
680.40	97.410
680.30	97.510
680.20	97.697
680.10	97.694
680.00	97.603
679.90	97.513
679.80	97.349
679.70	97.144
679.60	97.213
679.50	97.401
679.40	97.384
679.30	97.366
679.20	97.467
679.10	97.538
679.00	97.546
678.90	97.590
678.80	97.613
678.70	97.658
678.60	97.550
678.50	97.491
678.40	97.420
678.30	97.231
678.20	97.135
678.10	97.153
678.00	97.002
677.90	97.080
677.80	97.158
677.70	97.211
677.60	97.321
677.50	97.451
677.40	97.359
677.30	97.313
677.20	97.172
677.10	97.111
677.00	97.014
676.90	97.022
676.80	96.986
676.70	96.975
676.60	96.890
676.50	96.917
676.40	97.000
676.30	97.158
676.20	97.302
676.10	97.419
676.00	97.394
675.90	97.367
675.80	97.277
675.70	97.281
675.60	97.216
675.50	97.250
675.40	97.223
675.30	97.163
675.20	97.091
675.10	96.921
675.00	96.685
674.90	96.755
674.80	96.789
674.70	96.818
674.60	96.751
674.50	96.948
674.40	97.062
674.30	97.170
674.20	97.071
674.10	97.150
674.00	96.966
673.90	96.867
673.80	96.770
673.70	96.834
673.60	96.723
673.50	96.866
673.40	96.882
673.30	96.943
673.20	96.938
673.10	96.921
673.00	96.825
672.90	96.899
672.80	96.964
672.70	97.118
672.60	97.124
672.50	97.149
672.40	96.987
672.30	96.971
672.20	97.043
672.10	97.137
672.00	97.163
671.90	97.163
671.80	97.203
671.70	97.297
671.60	97.306
671.50	97.436
671.40	97.605
671.30	97.432
671.20	97.388
671.10	97.390
671.00	97.222
670.90	96.995
670.80	96.920
670.70	96.848
670.60	96.933
670.50	96.999
670.40	97.013
670.30	96.967
670.20	96.914
670.10	97.000
670.00	97.049
669.90	96.973
669.80	96.956
669.70	96.906
669.60	96.763
669.50	96.789
669.40	96.829
669.30	96.895
669.20	96.990
669.10	97.125
669.00	97.236
668.90	97.287
668.80	97.242
668.70	97.134
668.60	97.061
668.50	96.954
668.40	96.959
668.30	96.996
668.20	96.864
668.10	96.835
668.00	96.889
667.90	97.112
667.80	97.118
667.70	97.084
667.60	97.067
667.50	97.045
667.40	97.120
667.30	97.051
667.20	97.113
667.10	97.219
667.00	97.297
666.90	97.396
666.80	97.281
666.70	97.011
666.60	96.874
666.50	96.907
666.40	96.848
666.30	96.851
666.20	96.997
666.10	97.015
666.00	96.935
665.90	96.927
665.80	96.897
665.70	97.075
665.60	97.129
665.50	97.168
665.40	97.040
665.30	96.945
665.20	96.948
665.10	96.909
665.00	96.810
664.90	96.597
664.80	96.695
664.70	96.741
664.60	96.667
664.50	96.734
664.40	96.640
664.30	96.737
664.20	96.795
664.10	96.843
664.00	96.783
663.90	96.690
663.80	96.599
663.70	96.563
663.60	96.685
663.50	96.750
663.40	96.698
663.30	96.602
663.20	96.652
663.10	96.715
663.00	96.618
662.90	96.530
662.80	96.580
662.70	96.499
662.60	96.577
662.50	96.589
662.40	96.654
662.30	96.636
662.20	96.625
662.10	96.817
662.00	96.720
661.90	96.623
661.80	96.569
661.70	96.590
661.60	96.491
661.50	96.420
661.40	96.537
661.30	96.595
661.20	96.778
661.10	96.825
661.00	96.788
660.90	96.753
660.80	96.612
660.70	96.648
660.60	96.593
660.50	96.574
660.40	96.594
660.30	96.726
660.20	96.743
660.10	96.717
660.00	96.614
659.90	96.552
659.80	96.702
659.70	96.832
659.60	96.897
659.50	96.900
659.40	96.897
659.30	96.956
659.20	96.789
659.10	96.608
659.00	96.470
658.90	96.508
658.80	96.550
658.70	96.500
658.60	96.428
658.50	96.354
658.40	96.348
658.30	96.380
658.20	96.454
658.10	96.390
658.00	96.411
657.90	96.479
657.80	96.350
657.70	96.256
657.60	96.298
657.50	96.466
657.40	96.565
657.30	96.596
657.20	96.561
657.10	96.514
657.00	96.467
656.90	96.444
656.80	96.494
656.70	96.519
656.60	96.502
656.50	96.487
656.40	96.397
656.30	96.276
656.20	96.289
656.10	96.436
656.00	96.523
655.90	96.506
655.80	96.493
655.70	96.317
655.60	96.261
655.50	96.234
655.40	96.220
655.30	96.351
655.20	96.465
655.10	96.493
655.00	96.458
654.90	96.331
654.80	96.077
654.70	96.085
654.60	96.013
654.50	95.920
654.40	95.926
654.30	95.792
654.20	95.691
654.10	95.721
654.00	95.673
653.90	95.679
653.80	95.685
653.70	95.673
653.60	95.783
653.50	95.820
653.40	95.799
653.30	95.927
653.20	95.904
653.10	95.828
653.00	95.762
652.90	95.580
652.80	95.507
652.70	95.462
652.60	95.550
652.50	95.721
652.40	95.869
652.30	95.908
652.20	95.933
652.10	95.876
652.00	95.857
651.90	95.752
651.80	95.811
651.70	95.726
651.60	95.795
651.50	95.772
651.40	95.933
651.30	96.071
651.20	96.217
651.10	96.197
651.00	96.118
650.90	96.049
650.80	95.790
650.70	95.729
650.60	95.744
650.50	95.762
650.40	95.903
650.30	95.927
650.20	95.961
650.10	95.923
650.00	95.846
649.90	95.733
649.80	95.743
649.70	95.745
649.60	95.734
649.50	95.773
649.40	95.757
649.30	95.832
649.20	95.910
649.10	95.931
649.00	95.903
648.90	95.811
648.80	95.715
648.70	95.620
648.60	95.603
648.50	95.444
648.40	95.381
648.30	95.420
648.20	95.440
648.10	95.404
648.00	95.335
647.90	95.370
647.80	95.546
647.70	95.644
647.60	95.781
647.50	95.742
647.40	95.820
647.30	95.799
647.20	95.794
647.10	95.716
647.00	95.605
646.90	95.562
646.80	95.533
646.70	95.476
646.60	95.257
646.50	95.241
646.40	95.278
646.30	95.391
646.20	95.477
646.10	95.470
646.00	95.567
645.90	95.437
645.80	95.369
645.70	95.263
645.60	95.170
645.50	95.133
645.40	95.164
645.30	95.278
645.20	95.282
645.10	95.350
645.00	95.372
644.90	95.416
644.80	95.424
644.70	95.441
644.60	95.430
644.50	95.299
644.40	95.356
644.30	95.282
644.20	95.239
644.10	95.162
644.00	95.142
643.90	95.235
643.80	95.360
643.70	95.429
643.60	95.474
643.50	95.425
643.40	95.331
643.30	95.284
643.20	95.093
643.10	94.930
643.00	94.871
642.90	94.914
642.80	94.958
642.70	94.989
642.60	95.107
642.50	95.090
642.40	95.209
642.30	95.204
642.20	95.174
642.10	95.155
642.00	94.988
641.90	94.964
641.80	94.824
641.70	94.731
641.60	94.627
641.50	94.628
641.40	94.482
641.30	94.514
641.20	94.647
641.10	94.686
641.00	94.728
640.90	94.671
640.80	94.617
640.70	94.624
640.60	94.562
640.50	94.647
640.40	94.733
640.30	94.879
640.20	94.955
640.10	95.059
640.00	94.876
639.90	94.681
639.80	94.545
639.70	94.481
639.60	94.453
639.50	94.494
639.40	94.548
639.30	94.633
639.20	94.596
639.10	94.463
639.00	94.419
638.90	94.386
638.80	94.267
638.70	94.295
638.60	94.388
638.50	94.402
638.40	94.478
638.30	94.538
638.20	94.509
638.10	94.472
638.00	94.406
637.90	94.438
637.80	94.485
637.70	94.432
637.60	94.461
637.50	94.530
637.40	94.454
637.30	94.422
637.20	94.323
637.10	94.137
637.00	94.106
636.90	94.246
636.80	94.352
636.70	94.490
636.60	94.531
636.50	94.547
636.40	94.561
636.30	94.425
636.20	94.290
636.10	94.171
636.00	94.078
635.90	94.249
635.80	94.373
635.70	94.432
635.60	94.406
635.50	94.362
635.40	94.218
635.30	94.127
635.20	93.954
635.10	93.880
635.00	93.933
634.90	93.959
634.80	94.095
634.70	94.218
634.60	94.154
634.50	94.138
634.40	94.112
634.30	94.094
634.20	94.038
634.10	94.019
634.00	94.012
633.90	94.018
633.80	94.062
633.70	94.111
633.60	94.305
633.50	94.251
633.40	94.208
633.30	94.216
633.20	94.011
633.10	93.842
633.00	93.742
632.90	93.786
632.80	93.848
632.70	93.986
632.60	94.184
632.50	94.278
632.40	94.312
632.30	94.131
632.20	94.057
632.10	93.841
632.00	93.715
631.90	93.647
631.80	93.668
631.70	93.709
631.60	93.776
631.50	93.891
631.40	93.877
631.30	93.825
631.20	93.763
631.10	93.736
631.00	93.765
630.90	93.808
630.80	93.972
630.70	94.074
630.60	94.135
630.50	94.064
630.40	94.000
630.30	93.800
630.20	93.805
630.10	93.847
630.00	93.854
629.90	93.938
629.80	93.941
629.70	94.004
629.60	93.916
629.50	93.791
629.40	93.805
629.30	93.684
629.20	93.547
629.10	93.414
629.00	93.347
628.90	93.258
628.80	93.314
628.70	93.373
628.60	93.386
628.50	93.578
628.40	93.656
628.30	93.706
628.20	93.670
628.10	93.614
628.00	93.720
627.90	93.763
627.80	93.830
627.70	93.762
627.60	93.661
627.50	93.602
627.40	93.515
627.30	93.420
627.20	93.280
627.10	93.332
627.00	93.370
626.90	93.386
626.80	93.404
626.70	93.300
626.60	93.370
626.50	93.393
626.40	93.494
626.30	93.675
626.20	93.811
626.10	93.849
626.00	93.784
625.90	93.742
625.80	93.465
625.70	93.268
625.60	93.183
625.50	93.334
625.40	93.416
625.30	93.385
625.20	93.529
625.10	93.604
625.00	93.666
624.90	93.711
624.80	93.744
624.70	93.710
624.60	93.614
624.50	93.745
624.40	93.664
624.30	93.500
624.20	93.424
624.10	93.475
624.00	93.464
623.90	93.458
623.80	93.472
623.70	93.456
623.60	93.476
623.50	93.471
623.40	93.475
623.30	93.412
623.20	93.212
623.10	93.192
623.00	93.187
622.90	93.238
622.80	93.310
622.70	93.354
622.60	93.258
622.50	93.246
622.40	93.269
622.30	93.198
622.20	93.139
622.10	93.249
622.00	93.430
621.90	93.504
621.80	93.437
621.70	93.369
621.60	93.210
621.50	93.120
621.40	93.059
621.30	93.093
621.20	93.067
621.10	93.148
621.00	93.370
620.90	93.390
620.80	93.307
620.70	93.185
620.60	93.233
620.50	93.182
620.40	93.188
620.30	93.226
620.20	93.139
620.10	93.024
620.00	93.001
619.90	92.993
619.80	92.959
619.70	92.786
619.60	92.816
619.50	92.841
619.40	92.920
619.30	92.870
619.20	92.845
619.10	92.742
619.00	92.774
618.90	92.809
618.80	92.847
618.70	92.820
618.60	92.861
618.50	92.889
618.40	93.001
618.30	93.052
618.20	93.082
618.10	93.015
618.00	93.037
617.90	93.078
617.80	93.023
617.70	93.027
617.60	93.022
617.50	92.885
617.40	92.759
617.30	92.760
617.20	92.682
617.10	92.621
617.00	92.605
616.90	92.699
616.80	92.772
616.70	92.815
616.60	92.876
616.50	92.909
616.40	92.750
616.30	92.694
616.20	92.627
616.10	92.608
616.00	92.632
615.90	92.653
615.80	92.517
615.70	92.573
615.60	92.472
615.50	92.413
615.40	92.319
615.30	92.382
615.20	92.506
615.10	92.560
615.00	92.567
614.90	92.608
614.80	92.534
614.70	92.504
614.60	92.543
614.50	92.531
614.40	92.469
614.30	92.579
614.20	92.517
614.10	92.453
614.00	92.360
613.90	92.339
613.80	92.452
613.70	92.516
613.60	92.428
613.50	92.426
613.40	92.263
613.30	92.224
613.20	92.241
613.10	92.336
613.00	92.436
612.90	92.527
612.80	92.612
612.70	92.678
612.60	92.704
612.50	92.579
612.40	92.472
612.30	92.455
612.20	92.399
612.10	92.570
612.00	92.478
611.90	92.380
611.80	92.371
611.70	92.383
611.60	92.315
611.50	92.274
611.40	92.239
611.30	92.208
611.20	92.229
611.10	92.256
611.00	92.183
610.90	92.059
610.80	91.967
610.70	92.066
610.60	92.131
610.50	92.239
610.40	92.284
610.30	92.318
610.20	92.245
610.10	92.239
610.00	92.258
609.90	92.183
609.80	92.214
609.70	92.223
609.60	92.131
609.50	92.049
609.40	91.923
609.30	91.824
609.20	91.830
609.10	91.970
609.00	92.031
608.90	92.063
608.80	92.132
608.70	92.126
608.60	92.113
608.50	91.918
608.40	91.948
608.30	92.034
608.20	92.002
608.10	92.064
608.00	92.068
607.90	92.010
607.80	92.029
607.70	92.058
607.60	91.997
607.50	91.919
607.40	91.932
607.30	91.898
607.20	91.949
607.10	91.788
607.00	91.655
606.90	91.642
606.80	91.636
606.70	91.724
606.60	91.761
606.50	91.770
606.40	91.903
606.30	92.080
606.20	92.043
606.10	91.931
606.00	91.780
605.90	91.652
605.80	91.690
605.70	91.718
605.60	91.557
605.50	91.500
605.40	91.520
605.30	91.568
605.20	91.535
605.10	91.476
605.00	91.518
604.90	91.633
604.80	91.619
604.70	91.641
604.60	91.611
604.50	91.607
604.40	91.606
604.30	91.727
604.20	91.608
604.10	91.522
604.00	91.475
603.90	91.331
603.80	91.223
603.70	91.226
603.60	91.333
603.50	91.452
603.40	91.457
603.30	91.492
603.20	91.505
603.10	91.573
603.00	91.506
602.90	91.465
602.80	91.346
602.70	91.210
602.60	91.149
602.50	90.965
602.40	90.884
602.30	90.941
602.20	91.064
602.10	91.220
602.00	91.306
601.90	91.273
601.80	91.223
601.70	91.205
601.60	91.214
601.50	91.188
601.40	91.268
601.30	91.403
601.20	91.497
601.10	91.421
601.00	91.165
600.90	90.940
600.80	90.880
600.70	90.926
600.60	91.113
600.50	91.152
600.40	91.034
600.30	91.083
600.20	90.975
600.10	90.715
600.00	90.579
599.90	90.661
599.80	90.859
599.70	90.953
599.60	91.044
599.50	90.929
599.40	90.931
599.30	90.836
599.20	90.894
599.10	90.773
599.00	90.422
598.90	90.459
598.80	90.525
598.70	90.554
598.60	90.572
598.50	90.724
598.40	90.872
598.30	90.863
598.20	90.790
598.10	90.543
598.00	90.452
597.90	90.422
597.80	90.534
597.70	90.728
597.60	90.687
597.50	90.591
597.40	90.606
597.30	90.523
597.20	90.236
597.10	90.088
597.00	90.011
596.90	90.111
596.80	90.217
596.70	90.285
596.60	90.245
596.50	90.169
596.40	90.054
596.30	90.089
596.20	90.077
596.10	90.057
596.00	90.255
595.90	90.423
595.80	90.528
595.70	90.423
595.60	90.270
595.50	90.067
595.40	90.042
595.30	89.982
595.20	90.070
595.10	90.120
595.00	90.316
594.90	90.384
594.80	90.375
594.70	90.375
594.60	90.284
594.50	90.238
594.40	90.363
594.30	90.279
594.20	90.196
594.10	90.089
594.00	89.924
593.90	89.802
593.80	89.832
593.70	89.856
593.60	90.063
593.50	90.198
593.40	90.117
593.30	90.092
593.20	89.889
593.10	89.826
593.00	89.930
592.90	90.082
592.80	90.164
592.70	90.358
592.60	90.359
592.50	90.379
592.40	90.354
592.30	90.337
592.20	90.145
592.10	90.210
592.00	90.104
591.90	90.010
591.80	89.852
591.70	89.711
591.60	89.661
591.50	89.762
591.40	89.699
591.30	89.584
591.20	89.603
591.10	89.546
591.00	89.591
590.90	89.641
590.80	89.551
590.70	89.739
590.60	89.836
590.50	89.906
590.40	89.949
590.30	89.785
590.20	89.667
590.10	89.673
590.00	89.527
589.90	89.438
589.80	89.545
589.70	89.605
589.60	89.671
589.50	89.743
589.40	89.704
589.30	89.672
589.20	89.515
589.10	89.466
589.00	89.429
588.90	89.354
588.80	89.484
588.70	89.666
588.60	89.714
588.50	89.698
588.40	89.617
588.30	89.413
588.20	89.399
588.10	89.363
588.00	89.358
587.90	89.353
587.80	89.287
587.70	89.429
587.60	89.405
587.50	89.191
587.40	89.101
587.30	89.048
587.20	89.167
587.10	89.117
587.00	89.200
586.90	89.157
586.80	89.244
586.70	89.213
586.60	89.249
586.50	89.202
586.40	89.162
586.30	89.264
586.20	89.376
586.10	89.294
586.00	89.388
585.90	89.268
585.80	89.188
585.70	88.951
585.60	88.870
585.50	88.997
585.40	88.963
585.30	88.977
585.20	89.051
585.10	88.946
585.00	88.875
584.90	88.845
584.80	88.945
584.70	89.063
584.60	89.250
584.50	89.274
584.40	89.277
584.30	89.213
584.20	89.022
584.10	88.964
584.00	88.738
583.90	88.682
583.80	88.812
583.70	88.749
583.60	88.752
583.50	88.795
583.40	88.819
583.30	88.836
583.20	88.750
583.10	88.704
583.00	88.659
582.90	88.681
582.80	88.666
582.70	88.703
582.60	88.626
582.50	88.657
582.40	88.722
582.30	88.622
582.20	88.489
582.10	88.502
582.00	88.530
581.90	88.458
581.80	88.394
581.70	88.376
581.60	88.279
581.50	88.282
581.40	88.203
581.30	88.180
581.20	88.111
581.10	88.062
581.00	87.994
580.90	87.966
580.80	87.846
580.70	87.711
580.60	87.770
580.50	87.787
580.40	87.827
580.30	87.912
580.20	87.939
580.10	87.948
580.00	87.876
579.90	87.810
579.80	87.681
579.70	87.577
579.60	87.502
579.50	87.620
579.40	87.769
579.30	87.785
579.20	87.774
579.10	87.801
579.00	87.798
578.90	87.872
578.80	87.854
578.70	87.771
578.60	87.821
578.50	87.895
578.40	87.972
578.30	87.877
578.20	87.857
578.10	87.755
578.00	87.703
577.90	87.678
577.80	87.527
577.70	87.496
577.60	87.495
577.50	87.630
577.40	87.683
577.30	87.668
577.20	87.713
577.10	87.687
577.00	87.706
576.90	87.556
576.80	87.550
576.70	87.460
576.60	87.396
576.50	87.484
576.40	87.444
576.30	87.445
576.20	87.394
576.10	87.346
576.00	87.287
575.90	87.249
575.80	87.238
575.70	87.179
575.60	87.152
575.50	87.012
575.40	86.974
575.30	86.985
575.20	86.854
575.10	86.941
575.00	86.990
574.90	87.057
574.80	87.102
574.70	87.040
574.60	86.897
574.50	86.830
574.40	86.814
574.30	86.777
574.20	86.724
574.10	86.529
574.00	86.517
573.90	86.623
573.80	86.622
573.70	86.688
573.60	86.801
573.50	86.821
573.40	86.747
573.30	86.727
573.20	86.565
573.10	86.428
573.00	86.459
572.90	86.455
572.80	86.332
572.70	86.160
572.60	86.176
572.50	86.198
572.40	86.129
572.30	86.115
572.20	86.227
572.10	86.301
572.00	86.330
571.90	86.397
571.80	86.394
571.70	86.304
571.60	86.314
571.50	86.221
571.40	86.017
571.30	85.887
571.20	85.985
571.10	86.216
571.00	86.324
570.90	86.442
570.80	86.452
570.70	86.334
570.60	86.111
570.50	85.873
570.40	85.743
570.30	85.663
570.20	85.757
570.10	85.846
570.00	85.812
569.90	85.840
569.80	85.813
569.70	85.841
569.60	85.742
569.50	85.738
569.40	85.735
569.30	85.786
569.20	85.829
569.10	85.817
569.00	85.778
568.90	85.772
568.80	85.786
568.70	85.651
568.60	85.444
568.50	85.349
568.40	85.370
568.30	85.419
568.20	85.425
568.10	85.389
568.00	85.293
567.90	85.200
567.80	85.254
567.70	85.235
567.60	85.250
567.50	85.353
567.40	85.419
567.30	85.487
567.20	85.422
567.10	85.251
567.00	85.285
566.90	85.310
566.80	85.276
566.70	85.263
566.60	85.292
566.50	85.230
566.40	85.132
566.30	85.038
566.20	84.920
566.10	84.847
566.00	84.825
565.90	84.944
565.80	84.946
565.70	84.855
565.60	84.946
565.50	84.950
565.40	84.808
565.30	84.589
565.20	84.484
565.10	84.358
565.00	84.364
564.90	84.517
564.80	84.548
564.70	84.525
564.60	84.573
564.50	84.635
564.40	84.524
564.30	84.360
564.20	84.281
564.10	84.231
564.00	84.248
563.90	84.298
563.80	84.338
563.70	84.275
563.60	84.248
563.50	84.290
563.40	84.251
563.30	84.106
563.20	84.011
563.10	84.109
563.00	84.119
562.90	84.123
562.80	84.068
562.70	84.030
562.60	83.925
562.50	83.924
562.40	83.940
562.30	83.847
562.20	83.810
562.10	83.754
562.00	83.749
561.90	83.664
561.80	83.601
561.70	83.650
561.60	83.680
561.50	83.762
561.40	83.746
561.30	83.784
561.20	83.788
561.10	83.717
561.00	83.626
560.90	83.544
560.80	83.549
560.70	83.413
560.60	83.407
560.50	83.429
560.40	83.400
560.30	83.397
560.20	83.412
560.10	83.426
560.00	83.284
559.90	83.222
559.80	83.260
559.70	83.291
559.60	83.216
559.50	83.264
559.40	83.294
559.30	83.166
559.20	83.095
559.10	83.082
559.00	83.027
558.90	82.977
558.80	82.861
558.70	82.767
558.60	82.643
558.50	82.620
558.40	82.575
558.30	82.656
558.20	82.685
558.10	82.821
558.00	82.834
557.90	82.771
557.80	82.692
557.70	82.564
557.60	82.624
557.50	82.587
557.40	82.535
557.30	82.489
557.20	82.471
557.10	82.511
557.00	82.385
556.90	82.377
556.80	82.350
556.70	82.397
556.60	82.336
556.50	82.307
556.40	82.297
556.30	82.262
556.20	82.269
556.10	82.125
556.00	81.926
555.90	81.830
555.80	81.737
555.70	81.778
555.60	81.810
555.50	81.871
555.40	81.902
555.30	81.886
555.20	81.827
555.10	81.765
555.00	81.695
554.90	81.599
554.80	81.588
554.70	81.548
554.60	81.449
554.50	81.439
554.40	81.390
554.30	81.421
554.20	81.490
554.10	81.440
554.00	81.377
553.90	81.278
553.80	81.225
553.70	81.237
553.60	81.310
553.50	81.274
553.40	81.362
553.30	81.384
553.20	81.336
553.10	81.177
553.00	80.979
552.90	80.835
552.80	80.773
552.70	80.668
552.60	80.730
552.50	80.800
552.40	80.834
552.30	80.827
552.20	80.863
552.10	80.881
552.00	80.786
551.90	80.752
551.80	80.671
551.70	80.603
551.60	80.558
551.50	80.482
551.40	80.453
551.30	80.381
551.20	80.458
551.10	80.504
551.00	80.557
550.90	80.465
550.80	80.334
550.70	80.251
550.60	80.150
550.50	80.096
550.40	80.024
550.30	79.939
550.20	79.961
550.10	79.972
550.00	79.990
549.90	80.015
549.80	79.952
549.70	79.895
549.60	79.864
549.50	79.845
549.40	79.754
549.30	79.637
549.20	79.619
549.10	79.629
549.00	79.712
548.90	79.713
548.80	79.763
548.70	79.772
548.60	79.736
548.50	79.688
548.40	79.556
548.30	79.427
548.20	79.337
548.10	79.283
548.00	79.264
547.90	79.270
547.80	79.261
547.70	79.150
547.60	79.040
547.50	78.910
547.40	78.797
547.30	78.697
547.20	78.671
547.10	78.745
547.00	78.855
546.90	78.808
546.80	78.869
546.70	78.829
546.60	78.747
546.50	78.602
546.40	78.561
546.30	78.445
546.20	78.395
546.10	78.428
546.00	78.427
545.90	78.429
545.80	78.374
545.70	78.355
545.60	78.374
545.50	78.243
545.40	78.147
545.30	78.126
545.20	78.186
545.10	78.122
545.00	78.149
544.90	78.115
544.80	78.059
544.70	77.947
544.60	77.772
544.50	77.722
544.40	77.696
544.30	77.632
544.20	77.652
544.10	77.622
544.00	77.547
543.90	77.402
543.80	77.325
543.70	77.194
543.60	77.114
543.50	77.096
543.40	77.166
543.30	77.228
543.20	77.197
543.10	77.117
543.00	77.120
542.90	77.098
542.80	77.084
542.70	77.053
542.60	77.043
542.50	77.011
542.40	76.988
542.30	76.887
542.20	76.834
542.10	76.723
542.00	76.596
541.90	76.565
541.80	76.549
541.70	76.483
541.60	76.480
541.50	76.499
541.40	76.501
541.30	76.445
541.20	76.381
541.10	76.389
541.00	76.375
540.90	76.284
540.80	76.278
540.70	76.214
540.60	76.145
540.50	76.037
540.40	75.991
540.30	75.894
540.20	75.837
540.10	75.865
540.00	75.854
539.90	75.782
539.80	75.793
539.70	75.852
539.60	75.824
539.50	75.765
539.40	75.724
539.30	75.646
539.20	75.567
539.10	75.415
539.00	75.350
538.90	75.230
538.80	75.182
538.70	75.092
538.60	75.001
538.50	74.869
538.40	74.873
538.30	74.951
538.20	74.986
538.10	74.952
538.00	74.948
537.90	74.949
537.80	74.904
537.70	74.808
537.60	74.702
537.50	74.628
537.40	74.614
537.30	74.541
537.20	74.456
537.10	74.447
537.00	74.428
536.90	74.447
536.80	74.378
536.70	74.285
536.60	74.201
536.50	74.117
536.40	74.045
536.30	74.007
536.20	73.958
536.10	73.969
536.00	73.999
535.90	73.996
535.80	73.872
535.70	73.849
535.60	73.775
535.50	73.759
535.40	73.668
535.30	73.599
535.20	73.526
535.10	73.423
535.00	73.257
534.90	73.132
534.80	73.073
534.70	73.073
534.60	73.091
534.50	73.083
534.40	73.026
534.30	72.980
534.20	72.891
534.10	72.820
534.00	72.690
533.90	72.594
533.80	72.564
533.70	72.546
533.60	72.509
533.50	72.374
533.40	72.375
533.30	72.347
533.20	72.328
533.10	72.238
533.00	72.134
532.90	72.077
532.80	71.943
532.70	71.876
532.60	71.860
532.50	71.850
532.40	71.841
532.30	71.890
532.20	71.894
532.10	71.749
532.00	71.703
531.90	71.575
531.80	71.487
531.70	71.347
531.60	71.240
531.50	71.244
531.40	71.204
531.30	71.178
531.20	71.202
531.10	71.153
531.00	70.993
530.90	70.929
530.80	70.846
530.70	70.711
530.60	70.651
530.50	70.576
530.40	70.566
530.30	70.572
530.20	70.604
530.10	70.636
530.00	70.536
529.90	70.438
529.80	70.341
529.70	70.283
529.60	70.150
529.50	70.192
529.40	70.156
529.30	70.109
529.20	70.122
529.10	70.055
529.00	69.911
528.90	69.705
528.80	69.586
528.70	69.562
528.60	69.531
528.50	69.592
528.40	69.572
528.30	69.620
528.20	69.511
528.10	69.505
528.00	69.357
527.90	69.193
527.80	69.040
527.70	68.974
527.60	68.899
527.50	68.805
527.40	68.791
527.30	68.790
527.20	68.757
527.10	68.750
527.00	68.625
526.90	68.517
526.80	68.334
526.70	68.213
526.60	68.133
526.50	68.164
526.40	68.189
526.30	68.275
526.20	68.239
526.10	68.121
526.00	67.971
525.90	67.772
525.80	67.627
525.70	67.565
525.60	67.551
525.50	67.534
525.40	67.546
525.30	67.468
525.20	67.379
525.10	67.276
525.00	67.227
524.90	67.163
524.80	67.060
524.70	66.997
524.60	66.936
524.50	66.778
524.40	66.734
524.30	66.680
524.20	66.552
524.10	66.429
524.00	66.353
523.90	66.272
523.80	66.222
523.70	66.122
523.60	66.118
523.50	66.028
523.40	65.931
523.30	65.876
523.20	65.802
523.10	65.661
523.00	65.580
522.90	65.562
522.80	65.514
522.70	65.442
522.60	65.361
522.50	65.351
522.40	65.327
522.30	65.276
522.20	65.271
522.10	65.154
522.00	64.988
521.90	64.890
521.80	64.844
521.70	64.786
521.60	64.650
521.50	64.608
521.40	64.615
521.30	64.527
521.20	64.418
521.10	64.381
521.00	64.264
520.90	64.196
520.80	64.132
520.70	64.024
520.60	63.910
520.50	63.822
520.40	63.764
520.30	63.732
520.20	63.597
520.10	63.479
520.00	63.411
519.90	63.359
519.80	63.250
519.70	63.269
519.60	63.243
519.50	63.290
519.40	63.230
519.30	63.112
519.20	62.964
519.10	62.816
519.00	62.668
518.90	62.579
518.80	62.520
518.70	62.469
518.60	62.435
518.50	62.382
518.40	62.280
518.30	62.153
518.20	62.016
518.10	61.952
518.00	61.919
517.90	61.873
517.80	61.875
517.70	61.816
517.60	61.722
517.50	61.605
517.40	61.439
517.30	61.330
517.20	61.252
517.10	61.152
517.00	61.104
516.90	61.047
516.80	61.008
516.70	60.902
516.60	60.812
516.50	60.678
516.40	60.604
516.30	60.546
516.20	60.440
516.10	60.311
516.00	60.167
515.90	60.094
515.80	60.018
515.70	59.932
515.60	59.821
515.50	59.714
515.40	59.617
515.30	59.491
515.20	59.399
515.10	59.324
515.00	59.228
514.90	59.206
514.80	59.150
514.70	59.011
514.60	58.924
514.50	58.824
514.40	58.692
514.30	58.544
514.20	58.494
514.10	58.411
514.00	58.315
513.90	58.209
513.80	58.103
513.70	58.024
513.60	57.925
513.50	57.881
513.40	57.812
513.30	57.699
513.20	57.664
513.10	57.596
513.00	57.526
512.90	57.365
512.80	57.224
512.70	57.017
512.60	56.892
512.50	56.835
512.40	56.816
512.30	56.757
512.20	56.677
512.10	56.636
512.00	56.564
511.90	56.418
511.80	56.261
511.70	56.090
511.60	56.004
511.50	55.924
511.40	55.854
511.30	55.774
511.20	55.737
511.10	55.693
511.00	55.656
510.90	55.566
510.80	55.356
510.70	55.175
510.60	55.039
510.50	54.945
510.40	54.859
510.30	54.793
510.20	54.729
510.10	54.689
510.00	54.582
509.90	54.489
509.80	54.404
509.70	54.340
509.60	54.283
509.50	54.253
509.40	54.144
509.30	54.062
509.20	53.955
509.10	53.854
509.00	53.728
508.90	53.589
508.80	53.434
508.70	53.370
508.60	53.212
508.50	53.149
508.40	53.117
508.30	53.042
508.20	52.962
508.10	52.827
508.00	52.708
507.90	52.577
507.80	52.486
507.70	52.408
507.60	52.335
507.50	52.201
507.40	52.128
507.30	52.092
507.20	51.944
507.10	51.834
507.00	51.750
506.90	51.647
506.80	51.567
506.70	51.453
506.60	51.371
506.50	51.254
506.40	51.175
506.30	51.103
506.20	50.993
506.10	50.829
506.00	50.757
505.90	50.629
505.80	50.554
505.70	50.478
505.60	50.353
505.50	50.201
505.40	50.114
505.30	50.014
505.20	49.867
505.10	49.731
505.00	49.608
504.90	49.506
504.80	49.388
504.70	49.258
504.60	49.169
504.50	49.073
504.40	48.988
504.30	48.936
504.20	48.870
504.10	48.733
504.00	48.623
503.90	48.507
503.80	48.376
503.70	48.302
503.60	48.228
503.50	48.196
503.40	48.145
503.30	48.064
503.20	47.968
503.10	47.866
503.00	47.690
502.90	47.519
502.80	47.376
502.70	47.271
502.60	47.186
502.50	47.079
502.40	47.006
502.30	46.992
502.20	46.946
502.10	46.924
502.00	46.850
501.90	46.759
501.80	46.650
501.70	46.533
501.60	46.410
501.50	46.265
501.40	46.169
501.30	46.112
501.20	46.035
501.10	45.890
501.00	45.800
500.90	45.774
500.80	45.732
500.70	45.673
500.60	45.643
500.50	45.558
500.40	45.431
500.30	45.283
500.20	45.158
500.10	45.028
500.00	44.960
499.90	44.919
499.80	44.929
499.70	44.881
499.60	44.814
499.50	44.707
499.40	44.570
499.30	44.449
499.20	44.315
499.10	44.200
499.00	44.141
498.90	44.039
498.80	44.027
498.70	44.006
498.60	43.955
498.50	43.832
498.40	43.748
498.30	43.651
498.20	43.565
498.10	43.494
498.00	43.391
497.90	43.378
497.80	43.330
497.70	43.307
497.60	43.179
497.50	43.021
497.40	42.922
497.30	42.855
497.20	42.781
497.10	42.692
497.00	42.621
496.90	42.599
496.80	42.519
496.70	42.442
496.60	42.311
496.50	42.152
496.40	42.067
496.30	42.028
496.20	41.953
496.10	41.896
496.00	41.836
495.90	41.814
495.80	41.766
495.70	41.656
495.60	41.536
495.50	41.446
495.40	41.326
495.30	41.233
495.20	41.156
495.10	41.069
495.00	41.028
494.90	40.972
494.80	40.946
494.70	40.859
494.60	40.790
494.50	40.720
494.40	40.644
494.30	40.548
494.20	40.495
494.10	40.443
494.00	40.386
493.90	40.318
493.80	40.256
493.70	40.186
493.60	40.123
493.50	40.066
493.40	40.003
493.30	39.949
493.20	39.934
493.10	39.856
493.00	39.794
492.90	39.750
492.80	39.696
492.70	39.613
492.60	39.544
492.50	39.461
492.40	39.415
492.30	39.323
492.20	39.245
492.10	39.164
492.00	39.105
491.90	39.091
491.80	39.109
491.70	39.029
491.60	38.936
491.50	38.876
491.40	38.838
491.30	38.770
491.20	38.737
491.10	38.669
491.00	38.669
490.90	38.661
490.80	38.634
490.70	38.534
490.60	38.472
490.50	38.422
490.40	38.376
490.30	38.360
490.20	38.315
490.10	38.270
490.00	38.227
489.90	38.193
489.80	38.178
489.70	38.131
489.60	38.054
489.50	38.046
489.40	38.013
489.30	37.970
489.20	37.952
489.10	37.913
489.00	37.845
488.90	37.801
488.80	37.741
488.70	37.695
488.60	37.612
488.50	37.576
488.40	37.537
488.30	37.538
488.20	37.471
488.10	37.476
488.00	37.434
487.90	37.412
487.80	37.397
487.70	37.338
487.60	37.283
487.50	37.215
487.40	37.163
487.30	37.106
487.20	37.051
487.10	37.004
487.00	36.999
486.90	36.999
486.80	36.983
486.70	36.968
486.60	36.928
486.50	36.858
486.40	36.813
486.30	36.729
486.20	36.635
486.10	36.572
486.00	36.522
485.90	36.499
485.80	36.513
485.70	36.455
485.60	36.439
485.50	36.439
485.40	36.476
485.30	36.515
485.20	36.544
485.10	36.551
485.00	36.562
484.90	36.543
484.80	36.497
484.70	36.458
484.60	36.391
484.50	36.354
484.40	36.289
484.30	36.224
484.20	36.150
484.10	36.111
484.00	36.076
483.90	36.077
483.80	36.105
483.70	36.102
483.60	36.069
483.50	36.025
483.40	35.970
483.30	35.932
483.20	35.934
483.10	35.960
483.00	35.957
482.90	35.932
482.80	35.882
482.70	35.838
482.60	35.750
482.50	35.718
482.40	35.728
482.30	35.720
482.20	35.702
482.10	35.702
482.00	35.664
481.90	35.625
481.80	35.619
481.70	35.583
481.60	35.620
481.50	35.617
481.40	35.627
481.30	35.588
481.20	35.527
481.10	35.507
481.00	35.513
480.90	35.514
480.80	35.478
480.70	35.472
480.60	35.452
480.50	35.430
480.40	35.386
480.30	35.339
480.20	35.333
480.10	35.332
480.00	35.371
479.90	35.355
479.80	35.350
479.70	35.334
479.60	35.347
479.50	35.366
479.40	35.328
479.30	35.303
479.20	35.324
479.10	35.303
479.00	35.251
478.90	35.247
478.80	35.213
478.70	35.158
478.60	35.183
478.50	35.157
478.40	35.168
478.30	35.143
478.20	35.174
478.10	35.188
478.00	35.155
477.90	35.107
477.80	35.054
477.70	34.981
477.60	34.947
477.50	34.960
477.40	34.985
477.30	35.019
477.20	35.092
477.10	35.153
477.00	35.191
476.90	35.144
476.80	35.100
476.70	35.022
476.60	34.962
476.50	34.932
476.40	34.893
476.30	34.887
476.20	34.895
476.10	34.897
476.00	34.877
475.90	34.905
475.80	34.887
475.70	34.874
475.60	34.885
475.50	34.875
475.40	34.869
475.30	34.832
475.20	34.827
475.10	34.826
475.00	34.841
474.90	34.842
474.80	34.834
474.70	34.820
474.60	34.789
474.50	34.801
474.40	34.829
474.30	34.870
474.20	34.886
474.10	34.902
474.00	34.910
473.90	34.835
473.80	34.770
473.70	34.729
473.60	34.759
473.50	34.793
473.40	34.792
473.30	34.786
473.20	34.759
473.10	34.742
473.00	34.701
472.90	34.677
472.80	34.658
472.70	34.668
472.60	34.711
472.50	34.734
472.40	34.753
472.30	34.767
472.20	34.781
472.10	34.801
472.00	34.805
471.90	34.772
471.80	34.710
471.70	34.710
471.60	34.689
471.50	34.698
471.40	34.699
471.30	34.706
471.20	34.699
471.10	34.715
471.00	34.702
470.90	34.688
470.80	34.678
470.70	34.654
470.60	34.696
470.50	34.699
470.40	34.697
470.30	34.720
470.20	34.710
470.10	34.768
470.00	34.766
469.90	34.762
469.80	34.738
469.70	34.781
469.60	34.777
469.50	34.771
469.40	34.761
469.30	34.723
469.20	34.696
469.10	34.651
469.00	34.629
468.90	34.656
468.80	34.677
468.70	34.718
468.60	34.742
468.50	34.735
468.40	34.712
468.30	34.716
468.20	34.714
468.10	34.724
468.00	34.731
467.90	34.794
467.80	34.791
467.70	34.820
467.60	34.773
467.50	34.728
467.40	34.719
467.30	34.724
467.20	34.754
467.10	34.771
467.00	34.754
466.90	34.748
466.80	34.753
466.70	34.745
466.60	34.721
466.50	34.754
466.40	34.726
466.30	34.768
466.20	34.806
466.10	34.795
466.00	34.793
465.90	34.743
465.80	34.698
465.70	34.684
465.60	34.691
465.50	34.709
465.40	34.743
465.30	34.787
465.20	34.816
465.10	34.840
465.00	34.837
464.90	34.800
464.80	34.767
464.70	34.725
464.60	34.750
464.50	34.748
464.40	34.712
464.30	34.687
464.20	34.714
464.10	34.743
464.00	34.783
463.90	34.839
463.80	34.906
463.70	34.890
463.60	34.873
463.50	34.839
463.40	34.807
463.30	34.768
463.20	34.797
463.10	34.821
463.00	34.846
462.90	34.831
462.80	34.817
462.70	34.795
462.60	34.738
462.50	34.740
462.40	34.791
462.30	34.828
462.20	34.859
462.10	34.861
462.00	34.848
461.90	34.809
461.80	34.767
461.70	34.741
461.60	34.745
461.50	34.809
461.40	34.874
461.30	34.936
461.20	34.955
461.10	34.934
461.00	34.895
460.90	34.824
460.80	34.803
460.70	34.771
460.60	34.782
460.50	34.829
460.40	34.849
460.30	34.859
460.20	34.841
460.10	34.858
460.00	34.878
459.90	34.891
459.80	34.929
459.70	34.945
459.60	34.948
459.50	34.877
459.40	34.853
459.30	34.759
459.20	34.761
459.10	34.774
459.00	34.811
458.90	34.823
458.80	34.866
458.70	34.916
458.60	34.976
458.50	34.957
458.40	34.962
458.30	34.958
458.20	34.979
458.10	34.984
458.00	35.025
457.90	34.972
457.80	34.962
457.70	34.945
457.60	34.937
457.50	34.923
457.40	34.903
457.30	34.931
457.20	35.006
457.10	34.984
457.00	35.008
456.90	34.958
456.80	34.909
456.70	34.884
456.60	34.910
456.50	34.918
456.40	34.924
456.30	34.923
456.20	34.940
456.10	34.955
456.00	34.930
455.90	34.946
455.80	34.996
455.70	35.014
455.60	35.055
455.50	35.084
455.40	35.091
455.30	35.060
455.20	35.020
455.10	35.009
455.00	34.984
454.90	34.962
454.80	34.991
454.70	35.024
454.60	35.024
454.50	35.060
454.40	35.064
454.30	35.065
454.20	35.067
454.10	35.052
454.00	35.117
453.90	35.104
453.80	35.070
453.70	35.042
453.60	34.976
453.50	34.931
453.40	34.907
453.30	34.937
453.20	34.985
453.10	35.049
453.00	35.064
452.90	35.083
452.80	35.122
452.70	35.071
452.60	35.076
452.50	35.068
452.40	35.033
452.30	35.037
452.20	35.009
452.10	34.989
452.00	34.967
451.90	34.968
451.80	35.050
451.70	35.120
451.60	35.175
451.50	35.182
451.40	35.182
451.30	35.124
451.20	35.083
451.10	35.076
451.00	35.048
450.90	35.074
450.80	35.116
450.70	35.122
450.60	35.150
450.50	35.138
450.40	35.119
450.30	35.137
450.20	35.192
450.10	35.210
450.00	35.207
449.90	35.211
449.80	35.179
449.70	35.190
449.60	35.166
449.50	35.102
449.40	35.124
449.30	35.067
449.20	35.044
449.10	35.058
449.00	35.017
448.90	35.066
448.80	35.123
448.70	35.166
448.60	35.152
448.50	35.151
448.40	35.147
448.30	35.194
448.20	35.191
448.10	35.152
448.00	35.209
447.90	35.183
447.80	35.155
447.70	35.175
447.60	35.119
447.50	35.081
447.40	35.105
447.30	35.105
447.20	35.121
447.10	35.057
447.00	35.063
446.90	35.094
446.80	35.089
446.70	35.061
446.60	35.046
446.50	35.094
446.40	35.122
446.30	35.121
446.20	35.134
446.10	35.096
446.00	35.094
445.90	35.095
445.80	35.082
445.70	35.031
445.60	35.055
445.50	35.134
445.40	35.153
445.30	35.131
445.20	35.053
445.10	35.085
445.00	35.031
444.90	34.991
444.80	35.106
444.70	35.182
444.60	35.246
444.50	35.354
444.40	35.351
444.30	35.294
444.20	35.257
444.10	35.284
444.00	35.253
443.90	35.223
443.80	35.225
443.70	35.346
443.60	35.304
443.50	35.240
443.40	35.247
443.30	35.243
443.20	35.235
443.10	35.268
443.00	35.306
442.90	35.322
442.80	35.303
442.70	35.303
442.60	35.303
442.50	35.245
442.40	35.179
442.30	35.229
442.20	35.244
442.10	35.285
442.00	35.324
441.90	35.331
441.80	35.311
441.70	35.272
441.60	35.189
441.50	35.203
441.40	35.198
441.30	35.211
441.20	35.206
441.10	35.271
441.00	35.269
440.90	35.304
440.80	35.333
440.70	35.370
440.60	35.339
440.50	35.339
440.40	35.318
440.30	35.330
440.20	35.255
440.10	35.241
440.00	35.263
439.90	35.280
439.80	35.242
439.70	35.277
439.60	35.205
439.50	35.201
439.40	35.193
439.30	35.243
439.20	35.250
439.10	35.270
439.00	35.315
438.90	35.368
438.80	35.307
438.70	35.199
438.60	35.169
438.50	35.167
438.40	35.208
438.30	35.261
438.20	35.274
438.10	35.320
438.00	35.310
437.90	35.294
437.80	35.281
437.70	35.209
437.60	35.266
437.50	35.353
437.40	35.414
437.30	35.401
437.20	35.377
437.10	35.360
437.00	35.371
436.90	35.359
436.80	35.371
436.70	35.368
436.60	35.395
436.50	35.409
436.40	35.442
436.30	35.419
436.20	35.432
436.10	35.456
436.00	35.442
435.90	35.395
435.80	35.361
435.70	35.343
435.60	35.336
435.50	35.303
435.40	35.350
435.30	35.381
435.20	35.411
435.10	35.398
435.00	35.435
434.90	35.465
434.80	35.501
434.70	35.522
434.60	35.485
434.50	35.458
434.40	35.382
434.30	35.350
434.20	35.318
434.10	35.312
434.00	35.350
433.90	35.427
433.80	35.560
433.70	35.601
433.60	35.596
433.50	35.555
433.40	35.528
433.30	35.440
433.20	35.354
433.10	35.344
433.00	35.264
432.90	35.268
432.80	35.233
432.70	35.260
432.60	35.239
432.50	35.209
432.40	35.256
432.30	35.293
432.20	35.330
432.10	35.350
432.00	35.386
431.90	35.409
431.80	35.464
431.70	35.489
431.60	35.524
431.50	35.600
431.40	35.611
431.30	35.626
431.20	35.622
431.10	35.571
431.00	35.508
430.90	35.429
430.80	35.393
430.70	35.392
430.60	35.450
430.50	35.507
430.40	35.521
430.30	35.460
430.20	35.439
430.10	35.395
430.00	35.304
429.90	35.241
429.80	35.288
429.70	35.391
429.60	35.485
429.50	35.576
429.40	35.602
429.30	35.584
429.20	35.583
429.10	35.521
429.00	35.460
428.90	35.377
428.80	35.407
428.70	35.429
428.60	35.442
428.50	35.458
428.40	35.441
428.30	35.465
428.20	35.420
428.10	35.388
428.00	35.353
427.90	35.367
427.80	35.417
427.70	35.391
427.60	35.483
427.50	35.486
427.40	35.523
427.30	35.563
427.20	35.561
427.10	35.555
427.00	35.492
426.90	35.452
426.80	35.367
426.70	35.321
426.60	35.309
426.50	35.315
426.40	35.402
426.30	35.380
426.20	35.470
426.10	35.503
426.00	35.472
425.90	35.480
425.80	35.474
425.70	35.474
425.60	35.418
425.50	35.390
425.40	35.330
425.30	35.321
425.20	35.337
425.10	35.332
425.00	35.390
424.90	35.372
424.80	35.427
424.70	35.447
424.60	35.403
424.50	35.369
424.40	35.407
424.30	35.475
424.20	35.507
424.10	35.506
424.00	35.492
423.90	35.483
423.80	35.493
423.70	35.433
423.60	35.389
423.50	35.382
423.40	35.428
423.30	35.418
423.20	35.434
423.10	35.412
423.00	35.399
422.90	35.482
422.80	35.543
422.70	35.553
422.60	35.571
422.50	35.548
422.40	35.563
422.30	35.527
422.20	35.485
422.10	35.453
422.00	35.404
421.90	35.362
421.80	35.399
421.70	35.419
421.60	35.431
421.50	35.452
421.40	35.482
421.30	35.459
421.20	35.433
421.10	35.311
421.00	35.258
420.90	35.281
420.80	35.360
420.70	35.403
420.60	35.462
420.50	35.470
420.40	35.424
420.30	35.381
420.20	35.352
420.10	35.305
420.00	35.348
419.90	35.387
419.80	35.436
419.70	35.404
419.60	35.387
419.50	35.484
419.40	35.569
419.30	35.589
419.20	35.641
419.10	35.608
419.00	35.497
418.90	35.470
418.80	35.405
418.70	35.370
418.60	35.351
418.50	35.417
418.40	35.497
418.30	35.478
418.20	35.461
418.10	35.402
418.00	35.351
417.90	35.363
417.80	35.417
417.70	35.411
417.60	35.366
417.50	35.412
417.40	35.448
417.30	35.469
417.20	35.446
417.10	35.425
417.00	35.465
416.90	35.459
416.80	35.524
416.70	35.499
416.60	35.474
416.50	35.474
416.40	35.453
416.30	35.352
416.20	35.352
416.10	35.353
416.00	35.405
415.90	35.463
415.80	35.478
415.70	35.471
415.60	35.508
415.50	35.516
415.40	35.450
415.30	35.373
415.20	35.358
415.10	35.407
415.00	35.459
414.90	35.466
414.80	35.517
414.70	35.547
414.60	35.565
414.50	35.526
414.40	35.475
414.30	35.425
414.20	35.416
414.10	35.413
414.00	35.402
413.90	35.420
413.80	35.441
413.70	35.517
413.60	35.500
413.50	35.461
413.40	35.423
413.30	35.458
413.20	35.487
413.10	35.482
413.00	35.508
412.90	35.509
412.80	35.508
412.70	35.505
412.60	35.438
412.50	35.353
412.40	35.299
412.30	35.300
412.20	35.317
412.10	35.322
412.00	35.314
411.90	35.318
411.80	35.328
411.70	35.334
411.60	35.326
411.50	35.240
411.40	35.170
411.30	35.194
411.20	35.311
411.10	35.400
411.00	35.491
410.90	35.488
410.80	35.503
410.70	35.477
410.60	35.421
410.50	35.413
410.40	35.323
410.30	35.323
410.20	35.376
410.10	35.483
410.00	35.517
409.90	35.432
409.80	35.425
409.70	35.407
409.60	35.305
409.50	35.242
409.40	35.207
409.30	35.200
409.20	35.249
409.10	35.371
409.00	35.377
408.90	35.334
408.80	35.236
408.70	35.229
408.60	35.295
408.50	35.359
408.40	35.427
408.30	35.479
408.20	35.412
408.10	35.365
408.00	35.350
407.90	35.306
407.80	35.289
407.70	35.314
407.60	35.357
407.50	35.348
407.40	35.358
407.30	35.250
407.20	35.249
407.10	35.285
407.00	35.356
406.90	35.393
406.80	35.420
406.70	35.399
406.60	35.394
406.50	35.319
406.40	35.246
406.30	35.265
406.20	35.286
406.10	35.272
406.00	35.276
405.90	35.282
405.80	35.318
405.70	35.286
405.60	35.275
405.50	35.213
405.40	35.248
405.30	35.259
405.20	35.339
405.10	35.362
405.00	35.387
404.90	35.398
404.80	35.392
404.70	35.354
404.60	35.307
404.50	35.335
404.40	35.382
404.30	35.359
404.20	35.351
404.10	35.298
404.00	35.290
403.90	35.213
403.80	35.196
403.70	35.132
403.60	35.129
403.50	35.169
403.40	35.199
403.30	35.182
403.20	35.235
403.10	35.241
403.00	35.312
402.90	35.348
402.80	35.325
402.70	35.332
402.60	35.323
402.50	35.268
402.40	35.260
402.30	35.184
402.20	35.176
402.10	35.200
402.00	35.247
401.90	35.284
401.80	35.318
401.70	35.250
401.60	35.226
401.50	35.216
401.40	35.159
401.30	35.208
401.20	35.238
401.10	35.258
401.00	35.281
400.90	35.200
400.80	35.129
400.70	35.067
400.60	35.116
400.50	35.164
400.40	35.207
400.30	35.258
400.20	35.277
400.10	35.232
400.00	35.206
399.90	35.201
399.80	35.182
399.70	35.199
399.60	35.254
399.50	35.275
399.40	35.207
399.30	35.115
399.20	35.157
399.10	35.129
399.00	35.177
398.90	35.281
398.80	35.355
398.70	35.360
398.60	35.382
398.50	35.333
398.40	35.205
398.30	35.069
398.20	34.999
398.10	34.960
398.00	34.963
397.90	34.885
397.80	34.938
397.70	34.957
397.60	34.999
397.50	35.085
397.40	35.155
397.30	35.210
397.20	35.262
397.10	35.339
397.00	35.329
396.90	35.301
396.80	35.207
396.70	35.180
396.60	35.161
396.50	35.115
396.40	35.144
396.30	35.179
396.20	35.142
396.10	35.151
396.00	35.124
395.90	35.102
395.80	35.072
395.70	35.118
395.60	35.101
395.50	35.113
395.40	35.076
395.30	35.098
395.20	35.052
395.10	35.038
395.00	35.075
394.90	35.128
394.80	35.152
394.70	35.202
394.60	35.175
394.50	35.056
394.40	34.930
394.30	34.892
394.20	34.931
394.10	34.991
394.00	35.101
393.90	35.195
393.80	35.248
393.70	35.180
393.60	35.119
393.50	35.053
393.40	34.959
393.30	34.874
393.20	34.961
393.10	34.995
393.00	34.994
392.90	34.932
392.80	34.974
392.70	34.934
392.60	34.922
392.50	34.867
392.40	34.800
392.30	34.746
392.20	34.663
392.10	34.611
392.00	34.628
391.90	34.656
391.80	34.754
391.70	34.837
391.60	34.915
391.50	34.935
391.40	34.953
391.30	34.904
391.20	34.915
391.10	34.890
391.00	34.838
390.90	34.867
390.80	34.858
390.70	34.855
390.60	34.845
390.50	34.814
390.40	34.768
390.30	34.737
390.20	34.746
390.10	34.812
390.00	34.815
389.90	34.794
389.80	34.704
389.70	34.726
389.60	34.724
389.50	34.717
389.40	34.660
389.30	34.733
389.20	34.825
389.10	34.840
389.00	34.851
388.90	34.721
388.80	34.693
388.70	34.743
388.60	34.802
388.50	34.903
388.40	34.877
388.30	34.941
388.20	34.880
388.10	34.849
388.00	34.708
387.90	34.643
387.80	34.688
387.70	34.806
387.60	34.964
387.50	34.966
387.40	34.887
387.30	34.824
387.20	34.771
387.10	34.712
387.00	34.646
386.90	34.731
386.80	34.775
386.70	34.876
386.60	34.933
386.50	34.893
386.40	34.871
386.30	34.863
386.20	34.890
386.10	34.913
386.00	34.842
385.90	34.856
385.80	34.858
385.70	34.807
385.60	34.766
385.50	34.780
385.40	34.708
385.30	34.676
385.20	34.671
385.10	34.610
385.00	34.515
384.90	34.575
384.80	34.558
384.70	34.506
384.60	34.471
384.50	34.550
384.40	34.595
384.30	34.564
384.20	34.614
384.10	34.625
384.00	34.548
383.90	34.506
383.80	34.500
383.70	34.485
383.60	34.420
383.50	34.478
383.40	34.522
383.30	34.523
383.20	34.567
383.10	34.602
383.00	34.550
382.90	34.480
382.80	34.433
382.70	34.473
382.60	34.492
382.50	34.604
382.40	34.655
382.30	34.638
382.20	34.576
382.10	34.520
382.00	34.498
381.90	34.394
381.80	34.401
381.70	34.466
381.60	34.467
381.50	34.507
381.40	34.492
381.30	34.499
381.20	34.460
381.10	34.481
381.00	34.535
380.90	34.529
380.80	34.425
380.70	34.401
380.60	34.363
380.50	34.354
380.40	34.330
380.30	34.323
380.20	34.284
380.10	34.219
380.00	34.252
379.90	34.303
379.80	34.411
379.70	34.427
379.60	34.441
379.50	34.388
379.40	34.267
379.30	34.265
379.20	34.161
379.10	34.120
379.00	34.116
378.90	34.166
378.80	34.254
378.70	34.269
378.60	34.320
378.50	34.276
378.40	34.251
378.30	34.266
378.20	34.305
378.10	34.259
378.00	34.192
377.90	34.226
377.80	34.212
377.70	34.184
377.60	34.137
377.50	34.082
377.40	34.079
377.30	34.100
377.20	34.168
377.10	34.201
377.00	34.202
376.90	34.255
376.80	34.311
376.70	34.293
376.60	34.225
376.50	34.155
376.40	34.028
376.30	33.975
376.20	33.952
376.10	33.955
376.00	34.010
375.90	34.133
375.80	34.155
375.70	34.116
375.60	34.005
375.50	33.973
375.40	34.017
375.30	34.107
375.20	34.168
375.10	34.212
375.00	34.205
374.90	34.189
374.80	34.137
374.70	34.052
374.60	33.976
374.50	34.032
374.40	34.013
374.30	34.048
374.20	34.018
374.10	33.978
374.00	33.925
373.90	33.911
373.80	33.867
373.70	33.850
373.60	33.858
373.50	33.837
373.40	33.803
373.30	33.768
373.20	33.726
373.10	33.730
373.00	33.740
372.90	33.812
372.80	33.869
372.70	33.895
372.60	33.947
372.50	33.993
372.40	33.942
372.30	33.886
372.20	33.868
372.10	33.846
372.00	33.862
371.90	33.847
371.80	33.847
371.70	33.760
371.60	33.737
371.50	33.740
371.40	33.733
371.30	33.682
371.20	33.688
371.10	33.713
371.00	33.710
370.90	33.663
370.80	33.617
370.70	33.624
370.60	33.641
370.50	33.689
370.40	33.771
370.30	33.763
370.20	33.752
370.10	33.718
370.00	33.691
369.90	33.629
369.80	33.546
369.70	33.451
369.60	33.411
369.50	33.364
369.40	33.352
369.30	33.401
369.20	33.466
369.10	33.585
369.00	33.612
368.90	33.623
368.80	33.540
368.70	33.480
368.60	33.496
368.50	33.455
368.40	33.524
368.30	33.541
368.20	33.578
368.10	33.562
368.00	33.537
367.90	33.528
367.80	33.563
367.70	33.575
367.60	33.504
367.50	33.539
367.40	33.460
367.30	33.418
367.20	33.411
367.10	33.316
367.00	33.383
366.90	33.477
366.80	33.518
366.70	33.603
366.60	33.580
366.50	33.549
366.40	33.495
366.30	33.393
366.20	33.342
366.10	33.337
366.00	33.307
365.90	33.290
365.80	33.249
365.70	33.247
365.60	33.205
365.50	33.234
365.40	33.188
365.30	33.275
365.20	33.335
365.10	33.354
365.00	33.372
364.90	33.346
364.80	33.325
364.70	33.290
364.60	33.260
364.50	33.222
364.40	33.178
364.30	33.146
364.20	33.071
364.10	33.131
364.00	33.194
363.90	33.279
363.80	33.279
363.70	33.287
363.60	33.277
363.50	33.310
363.40	33.238
363.30	33.140
363.20	33.068
363.10	33.026
363.00	33.150
362.90	33.192
362.80	33.178
362.70	33.165
362.60	33.142
362.50	33.141
362.40	33.023
362.30	32.970
362.20	32.870
362.10	32.895
362.00	32.909
361.90	32.922
361.80	33.013
361.70	32.977
361.60	32.942
361.50	33.000
361.40	33.033
361.30	33.031
361.20	32.951
361.10	32.978
361.00	32.951
360.90	32.963
360.80	32.900
360.70	32.876
360.60	32.781
360.50	32.662
360.40	32.761
360.30	32.821
360.20	32.863
360.10	32.967
360.00	32.974
359.90	33.010
359.80	32.903
359.70	32.849
359.60	32.797
359.50	32.773
359.40	32.722
359.30	32.724
359.20	32.701
359.10	32.615
359.00	32.578
358.90	32.557
358.80	32.584
358.70	32.590
358.60	32.522
358.50	32.533
358.40	32.508
358.30	32.479
358.20	32.605
358.10	32.657
358.00	32.649
357.90	32.612
357.80	32.610
357.70	32.569
357.60	32.527
357.50	32.557
357.40	32.630
357.30	32.671
357.20	32.676
357.10	32.684
357.00	32.612
356.90	32.547
356.80	32.626
356.70	32.665
356.60	32.637
356.50	32.642
356.40	32.706
356.30	32.691
356.20	32.628
356.10	32.549
356.00	32.601
355.90	32.622
355.80	32.654
355.70	32.731
355.60	32.712
355.50	32.691
355.40	32.666
355.30	32.578
355.20	32.457
355.10	32.380
355.00	32.347
354.90	32.382
354.80	32.420
354.70	32.435
354.60	32.449
354.50	32.452
354.40	32.522
354.30	32.594
354.20	32.585
354.10	32.566
354.00	32.573
353.90	32.535
353.80	32.549
353.70	32.469
353.60	32.406
353.50	32.443
353.40	32.529
353.30	32.629
353.20	32.570
353.10	32.446
353.00	32.401
352.90	32.470
352.80	32.423
352.70	32.425
352.60	32.455
352.50	32.530
352.40	32.558
352.30	32.524
352.20	32.410
352.10	32.356
352.00	32.354
351.90	32.424
351.80	32.435
351.70	32.419
351.60	32.374
351.50	32.415
351.40	32.386
351.30	32.386
351.20	32.406
351.10	32.503
351.00	32.494
350.90	32.442
350.80	32.284
350.70	32.223
350.60	32.215
350.50	32.241
350.40	32.331
350.30	32.418
350.20	32.450
350.10	32.485
350.00	32.483
349.90	32.387
349.80	32.275
349.70	32.252
349.60	32.325
349.50	32.397
349.40	32.495
349.30	32.567
349.20	32.582
349.10	32.553
349.00	32.540
348.90	32.468
348.80	32.398
348.70	32.350
348.60	32.412
348.50	32.415
348.40	32.483
348.30	32.513
348.20	32.533
348.10	32.551
348.00	32.623
347.90	32.664
347.80	32.617
347.70	32.610
347.60	32.633
347.50	32.492
347.40	32.504
347.30	32.450
347.20	32.480
347.10	32.516
347.00	32.545
346.90	32.512
346.80	32.548
346.70	32.569
346.60	32.524
346.50	32.520
346.40	32.477
346.30	32.582
346.20	32.775
346.10	32.742
346.00	32.765
345.90	32.779
345.80	32.782
345.70	32.851
345.60	32.789
345.50	32.670
345.40	32.656
345.30	32.687
345.20	32.647
345.10	32.556
345.00	32.407
344.90	32.370
344.80	32.441
344.70	32.548
344.60	32.496
344.50	32.559
344.40	32.659
344.30	32.775
344.20	32.840
344.10	32.883
344.00	32.869
343.90	32.816
343.80	32.861
343.70	32.896
343.60	32.846
343.50	32.756
343.40	32.740
343.30	32.824
343.20	32.838
343.10	32.785
343.00	32.837
342.90	32.828
342.80	32.806
342.70	32.917
342.60	32.906
342.50	32.847
342.40	32.884
342.30	32.894
342.20	32.915
342.10	32.862
342.00	32.869
341.90	32.925
341.80	33.021
341.70	33.078
341.60	33.120
341.50	33.132
341.40	33.074
341.30	33.128
341.20	32.999
341.10	32.882
341.00	32.795
340.90	32.765
340.80	32.818
340.70	32.868
340.60	32.979
340.50	32.911
340.40	32.863
340.30	32.927
340.20	33.007
340.10	33.185
340.00	33.470
339.90	33.855
339.80	34.120
339.70	34.313
339.60	34.335
339.50	34.291
339.40	34.165
339.30	34.127
339.20	34.207
339.10	34.204
339.00	34.275
338.90	34.322
338.80	34.400
338.70	34.456
338.60	34.512
338.50	34.555
338.40	34.509
338.30	34.494
338.20	34.423
338.10	34.421
338.00	34.407
337.90	34.441
337.80	34.452
337.70	34.447
337.60	34.431
337.50	34.372
337.40	34.365
337.30	34.370
337.20	34.376
337.10	34.447
337.00	34.458
336.90	34.467
336.80	34.430
336.70	34.492
336.60	34.493
336.50	34.542
336.40	34.577
336.30	34.627
336.20	34.635
336.10	34.612
336.00	34.627
335.90	34.657
335.80	34.627
335.70	34.623
335.60	34.629
335.50	34.612
335.40	34.573
335.30	34.640
335.20	34.640
335.10	34.687
335.00	34.738
334.90	34.794
334.80	34.773
334.70	34.728
334.60	34.699
334.50	34.760
334.40	34.796
334.30	34.812
334.20	34.809
334.10	34.768
334.00	34.691
333.90	34.686
333.80	34.711
333.70	34.709
333.60	34.725
333.50	34.744
333.40	34.749
333.30	34.717
333.20	34.727
333.10	34.718
333.00	34.752
332.90	34.865
332.80	34.944
332.70	34.959
332.60	34.948
332.50	34.859
332.40	34.861
332.30	34.831
332.20	34.839
332.10	34.868
332.00	34.921
331.90	34.937
331.80	34.952
331.70	34.938
331.60	34.909
331.50	34.921
331.40	34.910
331.30	34.910
331.20	34.879
331.10	34.855
331.00	34.882
330.90	34.870
330.80	34.895
330.70	34.943
330.60	35.030
330.50	35.082
330.40	35.063
330.30	35.005
330.20	34.995
330.10	35.015
330.00	35.036
329.90	35.129
329.80	35.170
329.70	35.185
329.60	35.190
329.50	35.176
329.40	35.107
329.30	35.083
329.20	35.082
329.10	35.137
329.00	35.165
328.90	35.181
328.80	35.241
328.70	35.274
328.60	35.191
328.50	35.100
328.40	35.032
328.30	34.959
328.20	34.946
328.10	35.002
328.00	35.062
327.90	35.090
327.80	35.132
327.70	35.183
327.60	35.154
327.50	35.088
327.40	35.097
327.30	35.142
327.20	35.157
327.10	35.179
327.00	35.137
326.90	35.137
326.80	35.158
326.70	35.207
326.60	35.282
326.50	35.220
326.40	35.274
326.30	35.307
326.20	35.254
326.10	35.208
326.00	35.213
325.90	35.220
325.80	35.307
325.70	35.398
325.60	35.388
325.50	35.324
325.40	35.323
325.30	35.328
325.20	35.340
325.10	35.315
325.00	35.378
324.90	35.444
324.80	35.435
324.70	35.425
324.60	35.399
324.50	35.310
324.40	35.304
324.30	35.343
324.20	35.365
324.10	35.334
324.00	35.401
323.90	35.454
323.80	35.489
323.70	35.508
323.60	35.540
323.50	35.514
323.40	35.539
323.30	35.517
323.20	35.547
323.10	35.493
323.00	35.523
322.90	35.570
322.80	35.587
322.70	35.550
322.60	35.513
322.50	35.549
322.40	35.599
322.30	35.608
322.20	35.648
322.10	35.593
322.00	35.600
321.90	35.586
321.80	35.624
321.70	35.568
321.60	35.510
321.50	35.505
321.40	35.544
321.30	35.549
321.20	35.515
321.10	35.513
321.00	35.515
320.90	35.546
320.80	35.593
320.70	35.612
320.60	35.656
320.50	35.689
320.40	35.725
320.30	35.685
320.20	35.643
320.10	35.627
320.00	35.582
319.90	35.551
319.80	35.558
319.70	35.558
319.60	35.624
319.50	35.709
319.40	35.679
319.30	35.689
319.20	35.669
319.10	35.713
319.00	35.752
318.90	35.753
318.80	35.805
318.70	35.880
318.60	35.928
318.50	35.914
318.40	35.942
318.30	35.855
318.20	35.820
318.10	35.807
318.00	35.714
317.90	35.677
317.80	35.646
317.70	35.647
317.60	35.679
317.50	35.718
317.40	35.780
317.30	35.896
317.20	35.947
317.10	35.929
317.00	35.952
316.90	35.917
316.80	35.897
316.70	35.886
316.60	35.864
316.50	35.814
316.40	35.793
316.30	35.781
316.20	35.883
316.10	35.860
316.00	35.835
315.90	35.833
315.80	35.778
315.70	35.769
315.60	35.781
315.50	35.793
315.40	35.808
315.30	35.911
315.20	35.970
315.10	35.955
315.00	35.921
314.90	35.859
314.80	35.872
314.70	35.806
314.60	35.800
314.50	35.846
314.40	35.910
314.30	35.953
314.20	35.997
314.10	35.995
314.00	35.930
313.90	35.909
313.80	35.891
313.70	35.888
313.60	35.867
313.50	35.918
313.40	35.976
313.30	36.004
313.20	35.969
313.10	35.955
313.00	35.983
312.90	35.950
312.80	35.981
312.70	36.003
312.60	36.062
312.50	36.019
312.40	36.018
312.30	36.062
312.20	36.073
312.10	36.066
312.00	36.037
311.90	36.053
311.80	36.052
311.70	36.032
311.60	36.073
311.50	36.007
311.40	36.010
311.30	35.991
311.20	36.081
311.10	36.079
311.00	36.064
310.90	36.036
310.80	36.077
310.70	36.082
310.60	36.042
310.50	36.014
310.40	36.044
310.30	36.030
310.20	36.052
310.10	36.057
310.00	36.112
309.90	36.097
309.80	36.142
309.70	36.143
309.60	36.172
309.50	36.147
309.40	36.119
309.30	36.095
309.20	36.047
309.10	36.013
309.00	36.027
308.90	35.988
308.80	35.969
308.70	35.959
308.60	36.057
308.50	36.132
308.40	36.209
308.30	36.206
308.20	36.195
308.10	36.180
308.00	36.206
307.90	36.201
307.80	36.196
307.70	36.155
307.60	36.126
307.50	36.091
307.40	36.038
307.30	36.015
307.20	36.058
307.10	36.092
307.00	36.178
306.90	36.245
306.80	36.246
306.70	36.258
306.60	36.287
306.50	36.282
306.40	36.322
306.30	36.309
306.20	36.250
306.10	36.244
306.00	36.190
305.90	36.177
305.80	36.228
305.70	36.238
305.60	36.250
305.50	36.266
305.40	36.265
305.30	36.264
305.20	36.250
305.10	36.270
305.00	36.256
304.90	36.277
304.80	36.250
304.70	36.270
304.60	36.289
304.50	36.283
304.40	36.317
304.30	36.285
304.20	36.251
304.10	36.253
304.00	36.255
303.90	36.254
303.80	36.207
303.70	36.247
303.60	36.195
303.50	36.178
303.40	36.149
303.30	36.158
303.20	36.207
303.10	36.245
303.00	36.285
302.90	36.326
302.80	36.339
302.70	36.306
302.60	36.251
302.50	36.292
302.40	36.255
302.30	36.280
302.20	36.279
302.10	36.352
302.00	36.384
301.90	36.428
301.80	36.437
301.70	36.407
301.60	36.337
301.50	36.310
301.40	36.304
301.30	36.244
301.20	36.206
301.10	36.280
301.00	36.350
300.90	36.409
300.80	36.428
300.70	36.464
300.60	36.446
300.50	36.441
300.40	36.340
300.30	36.320
300.20	36.315
300.10	36.368
300.00	36.450
299.90	36.467
299.80	36.437
299.70	36.395
299.60	36.328
299.50	36.284
299.40	36.244
299.30	36.275
299.20	36.331
299.10	36.404
299.00	36.445
298.90	36.484
298.80	36.459
298.70	36.459
298.60	36.464
298.50	36.437
298.40	36.481
298.30	36.493
298.20	36.499
298.10	36.511
298.00	36.487
297.90	36.461
297.80	36.463
297.70	36.476
297.60	36.464
297.50	36.465
297.40	36.409
297.30	36.352
297.20	36.309
297.10	36.236
297.00	36.240
296.90	36.295
296.80	36.387
296.70	36.451
296.60	36.541
296.50	36.488
296.40	36.432
296.30	36.427
296.20	36.377
296.10	36.400
296.00	36.426
295.90	36.417
295.80	36.405
295.70	36.398
295.60	36.345
295.50	36.360
295.40	36.349
295.30	36.328
295.20	36.386
295.10	36.411
295.00	36.443
294.90	36.502
294.80	36.562
294.70	36.569
294.60	36.611
294.50	36.580
294.40	36.518
294.30	36.505
294.20	36.465
294.10	36.510
294.00	36.545
293.90	36.549
293.80	36.532
293.70	36.497
293.60	36.477
293.50	36.445
293.40	36.457
293.30	36.449
293.20	36.510
293.10	36.569
293.00	36.583
292.90	36.626
292.80	36.609
292.70	36.621
292.60	36.628
292.50	36.600
292.40	36.635
292.30	36.618
292.20	36.610
292.10	36.583
292.00	36.577
291.90	36.496
291.80	36.458
291.70	36.430
291.60	36.389
291.50	36.384
291.40	36.438
291.30	36.511
291.20	36.576
291.10	36.585
291.00	36.661
290.90	36.662
290.80	36.626
290.70	36.586
290.60	36.558
290.50	36.443
290.40	36.451
290.30	36.445
290.20	36.458
290.10	36.496
290.00	36.540
289.90	36.571
289.80	36.585
289.70	36.567
289.60	36.529
289.50	36.436
289.40	36.389
289.30	36.348
289.20	36.402
289.10	36.384
289.00	36.412
288.90	36.449
288.80	36.488
288.70	36.545
288.60	36.519
288.50	36.480
288.40	36.511
288.30	36.516
288.20	36.572
288.10	36.641
288.00	36.677
287.90	36.706
287.80	36.763
287.70	36.738
287.60	36.676
287.50	36.640
287.40	36.596
287.30	36.631
287.20	36.644
287.10	36.641
287.00	36.679
286.90	36.612
286.80	36.589
286.70	36.600
286.60	36.598
286.50	36.630
286.40	36.596
286.30	36.597
286.20	36.608
286.10	36.634
286.00	36.617
285.90	36.660
285.80	36.678
285.70	36.705
285.60	36.768
285.50	36.763
285.40	36.767
285.30	36.732
285.20	36.748
285.10	36.762
285.00	36.727
284.90	36.697
284.80	36.703
284.70	36.675
284.60	36.655
284.50	36.712
284.40	36.758
284.30	36.805
284.20	36.847
284.10	36.833
284.00	36.840
283.90	36.796
283.80	36.715
283.70	36.687
283.60	36.656
283.50	36.669
283.40	36.708
283.30	36.746
283.20	36.762
283.10	36.764
283.00	36.748
282.90	36.755
282.80	36.768
282.70	36.783
282.60	36.777
282.50	36.807
282.40	36.783
282.30	36.824
282.20	36.799
282.10	36.802
282.00	36.760
281.90	36.766
281.80	36.769
281.70	36.755
281.60	36.737
281.50	36.744
281.40	36.805
281.30	36.937
281.20	36.974
281.10	36.983
281.00	36.957
280.90	36.946
280.80	36.925
280.70	36.867
280.60	36.798
280.50	36.792
280.40	36.781
280.30	36.762
280.20	36.733
280.10	36.665
280.00	36.660
279.90	36.725
279.80	36.773
279.70	36.808
279.60	36.821
279.50	36.828
279.40	36.875
279.30	36.899
279.20	36.908
279.10	36.950
279.00	37.045
278.90	37.100
278.80	37.100
278.70	37.022
278.60	36.972
278.50	36.908
278.40	36.853
278.30	36.885
278.20	36.887
278.10	36.937
278.00	36.965
277.90	37.000
277.80	36.971
277.70	36.924
277.60	36.912
277.50	36.910
277.40	36.895
277.30	36.858
277.20	36.876
277.10	36.895
277.00	36.911
276.90	36.923
276.80	36.948
276.70	36.965
276.60	36.906
276.50	36.871
276.40	36.858
276.30	36.868
276.20	36.887
276.10	36.971
276.00	37.062
275.90	37.094
275.80	37.085
275.70	37.037
275.60	36.985
275.50	36.905
275.40	36.933
275.30	36.945
275.20	36.945
275.10	36.941
275.00	36.973
274.90	36.929
274.80	36.860
274.70	36.806
274.60	36.786
274.50	36.817
274.40	36.856
274.30	36.843
274.20	36.825
274.10	36.853
274.00	36.859
273.90	36.853
273.80	36.872
273.70	36.875
273.60	36.898
273.50	36.888
273.40	36.925
273.30	36.921
273.20	36.881
273.10	36.846
273.00	36.797
272.90	36.756
272.80	36.748
272.70	36.753
272.60	36.705
272.50	36.666
272.40	36.725
272.30	36.782
272.20	36.802
272.10	36.760
272.00	36.745
271.90	36.735
271.80	36.718
271.70	36.690
271.60	36.634
271.50	36.643
271.40	36.718
271.30	36.767
271.20	36.789
271.10	36.750
271.00	36.659
270.90	36.590
270.80	36.589
270.70	36.567
270.60	36.573
270.50	36.603
270.40	36.692
270.30	36.699
270.20	36.693
270.10	36.644
270.00	36.621
269.90	36.581
269.80	36.532
269.70	36.553
269.60	36.553
269.50	36.529
269.40	36.542
269.30	36.481
269.20	36.405
269.10	36.317
269.00	36.298
268.90	36.227
268.80	36.204
268.70	36.188
268.60	36.244
268.50	36.295
268.40	36.294
268.30	36.252
268.20	36.291
268.10	36.297
268.00	36.309
267.90	36.311
267.80	36.313
267.70	36.245
267.60	36.179
267.50	36.134
267.40	36.128
267.30	36.150
267.20	36.191
267.10	36.207
267.00	36.203
266.90	36.135
266.80	36.138
266.70	36.094
266.60	35.991
266.50	35.961
266.40	35.972
266.30	35.968
266.20	35.929
266.10	35.916
266.00	35.896
265.90	35.907
265.80	35.978
265.70	35.959
265.60	35.925
265.50	35.874
265.40	35.887
265.30	35.883
265.20	35.863
265.10	35.887
265.00	35.857
264.90	35.877
264.80	35.883
264.70	35.887
264.60	35.829
264.50	35.789
264.40	35.778
264.30	35.757
264.20	35.692
264.10	35.697
264.00	35.738
263.90	35.707
263.80	35.645
263.70	35.572
263.60	35.490
263.50	35.434
263.40	35.438
263.30	35.405
263.20	35.383
263.10	35.374
263.00	35.375
262.90	35.404
262.80	35.333
262.70	35.304
262.60	35.336
262.50	35.371
262.40	35.355
262.30	35.354
262.20	35.335
262.10	35.318
262.00	35.319
261.90	35.286
261.80	35.261
261.70	35.185
261.60	35.170
261.50	35.208
261.40	35.259
261.30	35.263
261.20	35.230
261.10	35.191
261.00	35.085
260.90	35.111
260.80	35.077
260.70	35.083
260.60	35.065
260.50	35.056
260.40	35.038
260.30	34.953
260.20	34.909
260.10	34.845
260.00	34.883
259.90	34.981
259.80	35.045
259.70	35.031
259.60	34.983
259.50	34.960
259.40	34.911
259.30	34.849
259.20	34.776
259.10	34.755
259.00	34.754
258.90	34.737
258.80	34.779
258.70	34.764
258.60	34.757
258.50	34.774
258.40	34.749
258.30	34.670
258.20	34.626
258.10	34.602
258.00	34.614
257.90	34.598
257.80	34.549
257.70	34.579
257.60	34.561
257.50	34.482
257.40	34.394
257.30	34.333
257.20	34.239
257.10	34.231
257.00	34.270
256.90	34.369
256.80	34.428
256.70	34.480
256.60	34.475
256.50	34.374
256.40	34.259
256.30	34.244
256.20	34.252
256.10	34.268
256.00	34.308
255.90	34.344
255.80	34.316
255.70	34.260
255.60	34.144
255.50	34.092
255.40	34.081
255.30	34.089
255.20	34.067
255.10	34.015
255.00	33.950
254.90	33.940
254.80	33.949
254.70	33.967
254.60	34.026
254.50	34.033
254.40	34.039
254.30	34.039
254.20	33.976
254.10	33.921
254.00	33.908
253.90	33.905
253.80	33.873
253.70	33.858
253.60	33.798
253.50	33.811
253.40	33.759
253.30	33.714
253.20	33.716
253.10	33.713
253.00	33.758
252.90	33.723
252.80	33.691
252.70	33.663
252.60	33.638
252.50	33.645
252.40	33.621
252.30	33.617
252.20	33.591
252.10	33.642
252.00	33.653
251.90	33.595
251.80	33.564
251.70	33.506
251.60	33.521
251.50	33.453
251.40	33.387
251.30	33.372
251.20	33.347
251.10	33.352
251.00	33.330
250.90	33.343
250.80	33.334
250.70	33.328
250.60	33.377
250.50	33.358
250.40	33.405
250.30	33.415
250.20	33.355
250.10	33.305
250.00	33.219
249.90	33.258
249.80	33.321
249.70	33.347
249.60	33.371
249.50	33.344
249.40	33.297
249.30	33.204
249.20	33.136
249.10	33.075
249.00	33.115
248.90	33.199
248.80	33.252
248.70	33.286
248.60	33.264
248.50	33.212
248.40	33.177
248.30	33.162
248.20	33.182
248.10	33.170
248.00	33.167
247.90	33.161
247.80	33.151
247.70	33.075
247.60	33.047
247.50	33.016
247.40	33.011
247.30	33.043
247.20	33.067
247.10	33.098
247.00	33.089
246.90	33.041
246.80	33.009
246.70	32.996
246.60	32.955
246.50	32.966
246.40	33.012
246.30	32.984
246.20	32.973
246.10	32.939
246.00	32.922
245.90	32.932
245.80	32.919
245.70	32.958
245.60	32.975
245.50	32.950
245.40	32.930
245.30	32.942
245.20	32.890
245.10	32.860
245.00	32.855
244.90	32.835
244.80	32.837
244.70	32.847
244.60	32.818
244.50	32.828
244.40	32.822
244.30	32.809
244.20	32.790
244.10	32.772
244.00	32.764
243.90	32.800
243.80	32.804
243.70	32.793
243.60	32.766
243.50	32.752
243.40	32.728
243.30	32.721
243.20	32.640
243.10	32.662
243.00	32.632
242.90	32.642
242.80	32.633
242.70	32.594
242.60	32.592
242.50	32.594
242.40	32.576
242.30	32.578
242.20	32.609
242.10	32.672
242.00	32.667
241.90	32.649
241.80	32.603
241.70	32.626
241.60	32.606
241.50	32.642
241.40	32.648
241.30	32.663
241.20	32.708
241.10	32.695
241.00	32.623
240.90	32.542
240.80	32.495
240.70	32.485
240.60	32.490
240.50	32.452
240.40	32.447
240.30	32.453
240.20	32.458
240.10	32.528
240.00	32.505
239.90	32.477
239.80	32.410
239.70	32.390
239.60	32.331
239.50	32.299
239.40	32.314
239.30	32.338
239.20	32.421
239.10	32.488
239.00	32.562
238.90	32.562
238.80	32.561
238.70	32.563
238.60	32.541
238.50	32.499
238.40	32.400
238.30	32.406
238.20	32.343
238.10	32.367
238.00	32.338
237.90	32.342
237.80	32.312
237.70	32.296
237.60	32.277
237.50	32.289
237.40	32.340
237.30	32.364
237.20	32.405
237.10	32.416
237.00	32.410
236.90	32.404
236.80	32.327
236.70	32.295
236.60	32.202
236.50	32.222
236.40	32.209
236.30	32.255
236.20	32.273
236.10	32.318
236.00	32.257
235.90	32.237
235.80	32.208
235.70	32.177
235.60	32.185
235.50	32.196
235.40	32.249
235.30	32.302
235.20	32.267
235.10	32.289
235.00	32.209
234.90	32.197
234.80	32.203
234.70	32.303
234.60	32.251
234.50	32.257
234.40	32.235
234.30	32.222
234.20	32.216
234.10	32.193
234.00	32.225
233.90	32.311
233.80	32.291
233.70	32.317
233.60	32.285
233.50	32.270
233.40	32.232
233.30	32.260
233.20	32.257
233.10	32.280
233.00	32.258
232.90	32.222
232.80	32.190
232.70	32.148
232.60	32.146
232.50	32.180
232.40	32.162
232.30	32.180
232.20	32.165
232.10	32.131
232.00	32.115
231.90	32.092
231.80	32.104
231.70	32.168
231.60	32.176
231.50	32.186
231.40	32.173
231.30	32.208
231.20	32.237
231.10	32.298
231.00	32.260
230.90	32.210
230.80	32.163
230.70	32.098
230.60	32.107
230.50	32.107
230.40	32.139
230.30	32.195
230.20	32.203
230.10	32.161
230.00	32.082
229.90	32.084
229.80	32.036
229.70	32.113
229.60	32.132
229.50	32.141
229.40	32.188
229.30	32.205
229.20	32.179
229.10	32.158
229.00	32.195
228.90	32.250
228.80	32.230
228.70	32.163
228.60	32.189
228.50	32.175
228.40	32.162
228.30	32.177
228.20	32.148
228.10	32.125
228.00	32.163
227.90	32.219
227.80	32.199
227.70	32.169
227.60	32.182
227.50	32.207
227.40	32.153
227.30	32.093
227.20	32.157
227.10	32.188
227.00	32.242
226.90	32.269
226.80	32.286
226.70	32.251
226.60	32.232
226.50	32.236
226.40	32.198
226.30	32.194
226.20	32.235
226.10	32.230
226.00	32.235
225.90	32.200
225.80	32.215
225.70	32.245
225.60	32.239
225.50	32.237
225.40	32.253
225.30	32.224
225.20	32.208
225.10	32.271
225.00	32.231
224.90	32.221
224.80	32.228
224.70	32.238
224.60	32.207
224.50	32.148
224.40	32.139
224.30	32.190
224.20	32.249
224.10	32.293
224.00	32.335
223.90	32.345
223.80	32.278
223.70	32.246
223.60	32.211
223.50	32.130
223.40	32.091
223.30	32.159
223.20	32.228
223.10	32.273
223.00	32.262
222.90	32.313
222.80	32.346
222.70	32.337
222.60	32.306
222.50	32.293
222.40	32.237
222.30	32.197
222.20	32.222
222.10	32.184
222.00	32.155
221.90	32.168
221.80	32.223
221.70	32.274
221.60	32.248
221.50	32.228
221.40	32.221
221.30	32.247
221.20	32.279
221.10	32.273
221.00	32.220
220.90	32.194
220.80	32.176
220.70	32.192
220.60	32.147
220.50	32.078
220.40	32.086
220.30	32.137
220.20	32.171
220.10	32.155
220.00	32.126
219.90	32.128
219.80	32.176
219.70	32.188
219.60	32.206
219.50	32.173
219.40	32.169
219.30	32.170
219.20	32.174
219.10	32.115
219.00	32.038
218.90	32.022
218.80	32.007
218.70	31.981
218.60	31.970
218.50	31.989
218.40	32.041
218.30	32.079
218.20	32.121
218.10	32.158
218.00	32.210
217.90	32.182
217.80	32.197
217.70	32.210
217.60	32.156
217.50	32.161
217.40	32.140
217.30	32.090
217.20	31.989
217.10	31.972
217.00	31.967
216.90	31.980
216.80	32.010
216.70	32.063
216.60	32.131
216.50	32.137
216.40	32.097
216.30	32.018
216.20	31.928
216.10	31.904
216.00	31.895
215.90	31.962
215.80	31.939
215.70	32.040
215.60	32.049
215.50	32.017
215.40	31.995
215.30	31.882
215.20	31.843
215.10	31.803
215.00	31.810
214.90	31.811
214.80	31.854
214.70	31.884
214.60	31.827
214.50	31.793
214.40	31.695
214.30	31.632
214.20	31.607
214.10	31.607
214.00	31.668
213.90	31.720
213.80	31.796
213.70	31.768
213.60	31.731
213.50	31.690
213.40	31.682
213.30	31.664
213.20	31.663
213.10	31.636
213.00	31.635
212.90	31.549
212.80	31.567
212.70	31.604
212.60	31.570
212.50	31.551
212.40	31.492
212.30	31.398
212.20	31.359
212.10	31.308
212.00	31.279
211.90	31.330
211.80	31.423
211.70	31.472
211.60	31.444
211.50	31.362
211.40	31.334
211.30	31.326
211.20	31.302
211.10	31.335
211.00	31.349
210.90	31.374
210.80	31.418
210.70	31.411
210.60	31.301
210.50	31.286
210.40	31.259
210.30	31.247
210.20	31.155
210.10	31.168
210.00	31.194
209.90	31.221
209.80	31.261
209.70	31.252
209.60	31.241
209.50	31.259
209.40	31.373
209.30	31.418
209.20	31.286
209.10	31.196
209.00	31.048
208.90	30.975
208.80	30.943
208.70	30.977
208.60	31.044
208.50	31.110
208.40	31.200
208.30	31.238
208.20	31.152
208.10	31.019
208.00	31.028
207.90	30.956
207.80	30.915
207.70	30.873
207.60	30.797
207.50	30.744
207.40	30.766
207.30	30.790
207.20	30.925
207.10	30.942
207.00	30.873
206.90	30.851
206.80	30.801
206.70	30.773
206.60	30.737
206.50	30.671
206.40	30.716
206.30	30.705
206.20	30.755
206.10	30.781
206.00	30.742
205.90	30.680
205.80	30.768
205.70	30.800
205.60	30.820
205.50	30.826
205.40	30.883
205.30	30.897
205.20	30.903
205.10	30.872
205.00	30.831
204.90	30.749
204.80	30.778
204.70	30.841
204.60	30.832
204.50	30.879
204.40	30.874
204.30	30.830
204.20	30.707
204.10	30.554
204.00	30.410
203.90	30.335
203.80	30.389
203.70	30.509
203.60	30.548
203.50	30.664
203.40	30.746
203.30	30.764
203.20	30.614
203.10	30.610
203.00	30.542
202.90	30.659
202.80	30.720
202.70	30.783
202.60	30.776
202.50	30.771
202.40	30.665
202.30	30.653
202.20	30.601
202.10	30.607
202.00	30.654
201.90	30.789
201.80	30.734
201.70	30.720
201.60	30.664
201.50	30.621
201.40	30.570
201.30	30.437
201.20	30.434
201.10	30.501
201.00	30.513
200.90	30.552
200.80	30.593
200.70	30.537
200.60	30.562
200.50	30.626
200.40	30.600
200.30	30.569
200.20	30.558
200.10	30.539
200.00	30.553

